aX,aY,aZ,gX,gY,gZ,Result
16500.0,-1832.0,-6092.0,-349.0,-343.0,-118.0,0.0
16340.0,-1944.0,-6092.0,49.0,-235.0,11.0,0.0
16344.0,-1628.0,-6196.0,-240.0,-541.0,-433.0,0.0
16556.0,-1800.0,-6176.0,-46.0,-508.0,-72.0,0.0
16420.0,-1960.0,-6480.0,-151.0,-306.0,-220.0,0.0
16488.0,-1608.0,-6340.0,-378.0,-28.0,-460.0,0.0
16388.0,-1700.0,-6440.0,-420.0,89.0,-321.0,0.0
16420.0,-1524.0,-6080.0,-272.0,522.0,172.0,0.0
16100.0,-2020.0,-5980.0,-376.0,120.0,-92.0,0.0
16556.0,-1788.0,-5820.0,-398.0,-10.0,-179.0,0.0
16320.0,-1808.0,-6072.0,-229.0,-53.0,-61.0,0.0
16220.0,-1376.0,-5768.0,-345.0,19.0,-95.0,0.0
16324.0,-1748.0,-5968.0,-375.0,-400.0,65.0,0.0
16520.0,-1308.0,-5864.0,-161.0,-232.0,173.0,0.0
16336.0,-1600.0,-5992.0,-214.0,-427.0,182.0,0.0
16532.0,-1684.0,-6216.0,-341.0,-564.0,-8.0,0.0
16596.0,-1640.0,-6276.0,-153.0,-373.0,146.0,0.0
16300.0,-1592.0,-6176.0,-285.0,-390.0,189.0,0.0
16444.0,-1848.0,-6372.0,-366.0,-277.0,132.0,0.0
16408.0,-1800.0,-6172.0,-299.0,-285.0,-29.0,0.0
16388.0,-1748.0,-6192.0,-313.0,-264.0,-54.0,0.0
16452.0,-1808.0,-6244.0,-159.0,-143.0,184.0,0.0
16300.0,-1756.0,-6252.0,-168.0,-128.0,46.0,0.0
16308.0,-1848.0,-6136.0,-275.0,-189.0,-87.0,0.0
16432.0,-1804.0,-6112.0,-20.0,-103.0,26.0,0.0
16248.0,-1520.0,-6184.0,20.0,-82.0,56.0,0.0
16348.0,-1840.0,-6456.0,-189.0,-186.0,-170.0,0.0
16400.0,-1852.0,-6192.0,-115.0,136.0,7.0,0.0
16188.0,-1736.0,-6128.0,-163.0,15.0,-29.0,0.0
16304.0,-1640.0,-6248.0,-208.0,-102.0,-131.0,0.0
16448.0,-1896.0,-6148.0,-151.0,-150.0,-106.0,0.0
16360.0,-1652.0,-6224.0,-3.0,5.0,-29.0,0.0
16148.0,-1688.0,-6164.0,-138.0,-232.0,-187.0,0.0
16264.0,-1528.0,-6248.0,-102.0,-304.0,77.0,0.0
16316.0,-1688.0,-6440.0,-145.0,-188.0,-13.0,0.0
16384.0,-1916.0,-6180.0,-217.0,-229.0,-70.0,0.0
16396.0,-1596.0,-6424.0,-251.0,-224.0,-8.0,0.0
16304.0,-1872.0,-6400.0,-165.0,-79.0,7.0,0.0
16236.0,-1620.0,-6032.0,-188.0,-97.0,171.0,0.0
16416.0,-1884.0,-6280.0,-185.0,-131.0,-60.0,0.0
16468.0,-1916.0,-6072.0,15.0,83.0,150.0,0.0
16376.0,-1576.0,-6220.0,-278.0,-182.0,-420.0,0.0
16284.0,-1596.0,-6156.0,-35.0,-98.0,115.0,0.0
16236.0,-1596.0,-6236.0,-210.0,-89.0,59.0,0.0
16324.0,-1656.0,-6164.0,-308.0,-381.0,3.0,0.0
16460.0,-1956.0,-6152.0,-153.0,-175.0,144.0,0.0
16476.0,-1744.0,-6360.0,-347.0,-293.0,65.0,0.0
16336.0,-1828.0,-6260.0,-134.0,-22.0,326.0,0.0
16328.0,-1520.0,-6176.0,-500.0,-260.0,184.0,0.0
16296.0,-1776.0,-6292.0,-627.0,-299.0,332.0,0.0
16324.0,-1888.0,-6368.0,-447.0,-311.0,566.0,0.0
16392.0,-1860.0,-6220.0,-790.0,-382.0,175.0,0.0
16256.0,-1916.0,-6400.0,-535.0,-260.0,567.0,0.0
16400.0,-1844.0,-6688.0,-526.0,-110.0,631.0,0.0
16472.0,-2244.0,-6444.0,-669.0,-294.0,489.0,0.0
16664.0,-1964.0,-6464.0,-376.0,601.0,622.0,0.0
16540.0,-2420.0,-6272.0,-143.0,1097.0,1093.0,0.0
16496.0,-2028.0,-5720.0,-425.0,846.0,110.0,0.0
16264.0,-1712.0,-5236.0,173.0,612.0,1175.0,0.0
16764.0,-2676.0,-5124.0,4.0,316.0,835.0,0.0
16556.0,-3560.0,-5168.0,683.0,63.0,698.0,0.0
16060.0,-2656.0,-4884.0,406.0,-889.0,-459.0,0.0
16132.0,-2448.0,-5880.0,237.0,-2181.0,-675.0,0.0
15728.0,-2132.0,-6108.0,706.0,-3121.0,13.0,0.0
15448.0,-2768.0,-7032.0,355.0,-4429.0,-169.0,0.0
16240.0,-2748.0,-8148.0,-170.0,-4385.0,-343.0,0.0
15548.0,-2580.0,-8432.0,-1657.0,-3150.0,-1608.0,0.0
15524.0,-1672.0,-7896.0,-1579.0,-1966.0,510.0,0.0
15028.0,-2060.0,-8268.0,-1356.0,-2444.0,11.0,0.0
15276.0,-2488.0,-8364.0,-1708.0,-2668.0,976.0,0.0
14948.0,-2396.0,-8676.0,-1689.0,-2893.0,849.0,0.0
15144.0,-2436.0,-8896.0,-1368.0,-3133.0,810.0,0.0
14960.0,-2568.0,-10080.0,-1347.0,-2230.0,45.0,0.0
14848.0,-2288.0,-10124.0,-943.0,-1624.0,379.0,0.0
14976.0,-2236.0,-10184.0,-637.0,-451.0,-231.0,0.0
14808.0,-1968.0,-9792.0,-585.0,-492.0,-31.0,0.0
14808.0,-1972.0,-9888.0,-400.0,-134.0,-187.0,0.0
14592.0,-2208.0,-9708.0,-511.0,-426.0,102.0,0.0
14696.0,-2252.0,-9588.0,-507.0,-365.0,-28.0,0.0
14428.0,-2160.0,-10036.0,-315.0,-297.0,158.0,0.0
14708.0,-2208.0,-9804.0,-318.0,-31.0,108.0,0.0
14900.0,-2276.0,-9796.0,-307.0,124.0,176.0,0.0
14736.0,-2072.0,-9820.0,-432.0,-275.0,133.0,0.0
14740.0,-2368.0,-9996.0,-72.0,-528.0,201.0,0.0
14792.0,-1944.0,-9868.0,-519.0,-727.0,-163.0,0.0
14716.0,-2188.0,-10068.0,-357.0,-474.0,95.0,0.0
14784.0,-1820.0,-9872.0,-437.0,-356.0,-199.0,0.0
14964.0,-2032.0,-10228.0,-205.0,-275.0,-197.0,0.0
14676.0,-2328.0,-9912.0,-285.0,-149.0,-259.0,0.0
14508.0,-1780.0,-10136.0,-407.0,-361.0,-310.0,0.0
14748.0,-2156.0,-10196.0,-429.0,-619.0,-348.0,0.0
14756.0,-2084.0,-10116.0,-551.0,-431.0,-464.0,0.0
14488.0,-1804.0,-10220.0,-465.0,-440.0,-541.0,0.0
14308.0,-1704.0,-10164.0,-429.0,-443.0,-310.0,0.0
14708.0,-1884.0,-10328.0,-272.0,-515.0,-178.0,0.0
14604.0,-1632.0,-10272.0,-190.0,-411.0,-12.0,0.0
14472.0,-1888.0,-10192.0,-298.0,-522.0,-12.0,0.0
14440.0,-1804.0,-10564.0,-316.0,-517.0,-265.0,0.0
14312.0,-1612.0,-10104.0,-195.0,-236.0,-26.0,0.0
14652.0,-1868.0,-10312.0,-259.0,-299.0,-17.0,0.0
14528.0,-1880.0,-10460.0,-311.0,-176.0,-50.0,0.0
14632.0,-1712.0,-10828.0,-461.0,-377.0,-189.0,0.0
14396.0,-1340.0,-10776.0,-570.0,-421.0,-54.0,0.0
14156.0,-1388.0,-10252.0,-289.0,6.0,194.0,0.0
14452.0,-1668.0,-10236.0,-229.0,-309.0,150.0,0.0
14716.0,-1948.0,-10568.0,-218.0,-286.0,-3.0,0.0
14508.0,-1700.0,-10496.0,-516.0,-370.0,-221.0,0.0
14676.0,-1276.0,-10452.0,-328.0,-425.0,-178.0,0.0
14396.0,-1332.0,-10660.0,-264.0,-376.0,27.0,0.0
14296.0,-1480.0,-10612.0,-304.0,-61.0,64.0,0.0
14452.0,-1696.0,-10384.0,-390.0,-402.0,1.0,0.0
14392.0,-1396.0,-10352.0,-249.0,-464.0,-28.0,0.0
14600.0,-1480.0,-10900.0,-346.0,-448.0,-30.0,0.0
14664.0,-1568.0,-10636.0,-244.0,19.0,145.0,0.0
14332.0,-1748.0,-10572.0,-383.0,-22.0,-137.0,0.0
14032.0,-1460.0,-10716.0,-364.0,-249.0,-193.0,0.0
13864.0,-1436.0,-10712.0,-279.0,-345.0,-40.0,0.0
14236.0,-1460.0,-10888.0,-374.0,-358.0,1.0,0.0
14664.0,-1880.0,-10896.0,-196.0,-468.0,304.0,0.0
14416.0,-1788.0,-11144.0,-613.0,-460.0,-89.0,0.0
14424.0,-1292.0,-10852.0,-710.0,-339.0,-10.0,0.0
14048.0,-1344.0,-10924.0,-659.0,-112.0,-57.0,0.0
13924.0,-1200.0,-10464.0,-576.0,-212.0,229.0,0.0
13956.0,-1228.0,-10648.0,-350.0,-238.0,236.0,0.0
14408.0,-1560.0,-10820.0,-147.0,-451.0,151.0,0.0
14388.0,-1652.0,-11056.0,-89.0,-383.0,10.0,0.0
14184.0,-1476.0,-11080.0,-260.0,-344.0,-88.0,0.0
14196.0,-1060.0,-11220.0,-283.0,-358.0,53.0,0.0
13796.0,-1416.0,-10892.0,-169.0,-262.0,147.0,0.0
14124.0,-1708.0,-10988.0,-37.0,-391.0,100.0,0.0
14164.0,-1476.0,-11064.0,-144.0,-87.0,30.0,0.0
14200.0,-1392.0,-11016.0,-238.0,-461.0,88.0,0.0
14272.0,-1088.0,-11336.0,-196.0,-533.0,43.0,0.0
14208.0,-1620.0,-11376.0,-298.0,-342.0,91.0,0.0
14072.0,-1768.0,-10832.0,-205.0,-314.0,75.0,0.0
14000.0,-1640.0,-11236.0,-372.0,-535.0,-250.0,0.0
14004.0,-1372.0,-11012.0,-147.0,-344.0,44.0,0.0
13800.0,-1112.0,-11060.0,-198.0,-359.0,231.0,0.0
14004.0,-1608.0,-11140.0,-243.0,-556.0,261.0,0.0
14084.0,-1556.0,-11276.0,-132.0,-330.0,339.0,0.0
13928.0,-1696.0,-11096.0,-173.0,-630.0,128.0,0.0
13896.0,-1676.0,-11612.0,-249.0,-714.0,49.0,0.0
13936.0,-1488.0,-11576.0,-158.0,-474.0,244.0,0.0
13892.0,-1604.0,-11648.0,-125.0,-393.0,210.0,0.0
13728.0,-1608.0,-11432.0,-87.0,-210.0,78.0,0.0
13860.0,-1660.0,-11428.0,-256.0,-569.0,-52.0,0.0
13840.0,-1620.0,-11264.0,-124.0,-265.0,83.0,0.0
13864.0,-1800.0,-11240.0,3.0,-295.0,111.0,0.0
13672.0,-1872.0,-11572.0,-136.0,-230.0,-145.0,0.0
13744.0,-1504.0,-11536.0,0.0,160.0,238.0,0.0
13800.0,-1932.0,-11572.0,-116.0,-44.0,11.0,0.0
14040.0,-1928.0,-11768.0,-72.0,244.0,-460.0,0.0
13920.0,-1548.0,-11748.0,172.0,1070.0,-446.0,0.0
13824.0,-1816.0,-11428.0,296.0,1563.0,-622.0,0.0
14052.0,-1640.0,-10948.0,-22.0,1440.0,-600.0,0.0
13996.0,-1464.0,-10696.0,-102.0,1519.0,-602.0,0.0
14292.0,-1572.0,-10544.0,-94.0,1025.0,-305.0,0.0
14360.0,-1328.0,-10824.0,-228.0,798.0,-706.0,0.0
14748.0,-1420.0,-10624.0,-553.0,1491.0,-954.0,0.0
14628.0,-1408.0,-11120.0,-687.0,2373.0,-1712.0,0.0
14624.0,-904.0,-10220.0,-429.0,3468.0,-1659.0,0.0
15016.0,-844.0,-9620.0,-655.0,3773.0,-2175.0,0.0
15124.0,-180.0,-9056.0,-305.0,3723.0,-2007.0,0.0
15440.0,-216.0,-8468.0,-272.0,3470.0,-1527.0,0.0
15688.0,92.0,-8012.0,-83.0,3019.0,-1203.0,0.0
15556.0,-60.0,-8028.0,111.0,1900.0,-989.0,0.0
15532.0,388.0,-8024.0,129.0,1342.0,-615.0,0.0
15732.0,100.0,-7756.0,33.0,327.0,415.0,0.0
15648.0,-220.0,-8200.0,-83.0,177.0,168.0,0.0
15880.0,-200.0,-7568.0,107.0,121.0,339.0,0.0
15956.0,-412.0,-7688.0,20.0,-337.0,-76.0,0.0
16092.0,-208.0,-7540.0,321.0,-310.0,190.0,0.0
15984.0,-196.0,-7772.0,227.0,-599.0,-33.0,0.0
16040.0,-100.0,-7836.0,274.0,-331.0,-126.0,0.0
16024.0,-212.0,-7700.0,335.0,-496.0,82.0,0.0
15984.0,-488.0,-8040.0,297.0,-766.0,189.0,0.0
15996.0,-356.0,-7944.0,453.0,-302.0,-73.0,0.0
15676.0,-132.0,-7936.0,235.0,-521.0,-13.0,0.0
15728.0,-488.0,-8372.0,46.0,-379.0,-295.0,0.0
15772.0,-44.0,-7792.0,190.0,-93.0,103.0,0.0
15796.0,-436.0,-8024.0,154.0,-61.0,136.0,0.0
15688.0,-556.0,-8108.0,92.0,-198.0,127.0,0.0
15856.0,-448.0,-8108.0,-80.0,-412.0,161.0,0.0
16016.0,-524.0,-8044.0,-152.0,-262.0,-387.0,0.0
15848.0,-356.0,-8148.0,-113.0,-410.0,-145.0,0.0
15940.0,-232.0,-8088.0,-149.0,-125.0,-192.0,0.0
15668.0,-164.0,-8180.0,-128.0,101.0,-97.0,0.0
15700.0,-348.0,-7812.0,172.0,10.0,322.0,0.0
15992.0,-408.0,-8180.0,-135.0,-656.0,98.0,0.0
15768.0,-808.0,-8256.0,-60.0,-455.0,510.0,0.0
15520.0,-440.0,-8148.0,-265.0,-575.0,261.0,0.0
15444.0,-392.0,-8120.0,-289.0,-886.0,331.0,0.0
15448.0,-880.0,-8480.0,72.0,-544.0,196.0,0.0
15712.0,-1156.0,-8820.0,61.0,-167.0,-65.0,0.0
15764.0,-1076.0,-8720.0,446.0,376.0,-237.0,0.0
15528.0,-808.0,-8576.0,293.0,81.0,-648.0,1.0
15864.0,-404.0,-8724.0,222.0,-333.0,-423.0,1.0
15820.0,-328.0,-9092.0,-149.0,-89.0,-51.0,1.0
15676.0,332.0,-8912.0,-80.0,626.0,870.0,1.0
15888.0,-572.0,-7948.0,1210.0,299.0,2767.0,1.0
15412.0,-1492.0,-7752.0,801.0,-1776.0,1821.0,1.0
15268.0,-1380.0,-8776.0,573.0,3.0,-1068.0,1.0
15872.0,-992.0,-8432.0,-183.0,-17.0,-286.0,1.0
15660.0,-1220.0,-8188.0,183.0,73.0,122.0,1.0
15464.0,-1044.0,-8668.0,116.0,585.0,-196.0,1.0
16076.0,-656.0,-7680.0,2171.0,3172.0,1212.0,1.0
15952.0,-1512.0,-6676.0,3792.0,-2707.0,6671.0,1.0
12152.0,-6644.0,-13280.0,-1237.0,4141.0,-5833.0,1.0
20144.0,1108.0,-3904.0,1753.0,9966.0,-722.0,1.0
15176.0,504.0,-2368.0,6538.0,-5686.0,12826.0,1.0
13348.0,-6360.0,-13668.0,-747.0,-2893.0,-2468.0,1.0
18156.0,-528.0,-7280.0,3028.0,5542.0,4547.0,1.0
15612.0,-6156.0,-3344.0,4067.0,-1028.0,9520.0,1.0
14552.0,-8236.0,-8940.0,-1605.0,-4826.0,-1624.0,1.0
16848.0,-3788.0,-9364.0,-1056.0,1433.0,-630.0,1.0
12868.0,-6724.0,-6052.0,2082.0,6664.0,-515.0,1.0
14316.0,-1420.0,-1240.0,-248.0,-1909.0,-1576.0,1.0
14724.0,-4556.0,-10452.0,-570.0,-5897.0,-2457.0,1.0
17040.0,-3384.0,-7176.0,4031.0,12956.0,-2371.0,1.0
19904.0,-4012.0,2548.0,12583.0,-10318.0,14068.0,1.0
12112.0,-4048.0,-13048.0,-7543.0,-884.0,-5886.0,1.0
16036.0,-6036.0,-5392.0,6570.0,4635.0,6328.0,1.0
16280.0,-8692.0,-2284.0,-5302.0,1262.0,-7787.0,1.0
16808.0,-2864.0,-3016.0,5304.0,-10162.0,5473.0,1.0
14980.0,-7492.0,-16516.0,-6489.0,18.0,-5668.0,1.0
14316.0,-6724.0,960.0,10762.0,12433.0,3803.0,1.0
14628.0,-2120.0,-3628.0,-7563.0,-19976.0,4223.0,1.0
15688.0,-6028.0,-14352.0,961.0,7523.0,-2738.0,1.0
14692.0,-4524.0,3056.0,-620.0,-799.0,3022.0,1.0
11544.0,-12116.0,-14732.0,-2776.0,-11857.0,-2075.0,1.0
15264.0,-2528.0,-9760.0,1093.0,12485.0,-3056.0,1.0
12164.0,-9624.0,-6036.0,-4906.0,-5811.0,829.0,1.0
14876.0,-4316.0,-9592.0,-494.0,6811.0,-5172.0,1.0
16112.0,-3772.0,2004.0,-1062.0,-13316.0,7548.0,1.0
14232.0,-11556.0,-21524.0,759.0,338.0,-1937.0,1.0
14648.0,-4940.0,1936.0,8018.0,10387.0,-1029.0,1.0
10744.0,-6936.0,-7068.0,-2121.0,-11204.0,2116.0,1.0
17084.0,-4584.0,-15080.0,-59.0,10575.0,-5561.0,1.0
16712.0,-5080.0,4732.0,-567.0,-5933.0,4213.0,1.0
15732.0,-9284.0,-17944.0,-1350.0,-2714.0,-1029.0,1.0
16872.0,-7816.0,-1600.0,1364.0,2951.0,2299.0,1.0
12504.0,-10064.0,-8536.0,424.0,-1901.0,-2320.0,1.0
11376.0,-4708.0,-7140.0,266.0,8821.0,-3373.0,1.0
13592.0,-4556.0,-5012.0,-2564.0,-12544.0,5293.0,1.0
16720.0,-8964.0,-17820.0,724.0,4011.0,-5574.0,1.0
16212.0,-2748.0,2216.0,8197.0,12464.0,2103.0,1.0
11696.0,-7308.0,-8044.0,-2118.0,-6495.0,-2218.0,1.0
14284.0,-3796.0,-10080.0,475.0,9207.0,-341.0,1.0
12176.0,-4796.0,436.0,-2950.0,-13319.0,5854.0,1.0
16016.0,-7840.0,-20340.0,-1504.0,3953.0,-3435.0,1.0
16404.0,-9204.0,4280.0,3759.0,9507.0,905.0,1.0
10100.0,-9284.0,-9480.0,-1880.0,-14862.0,1092.0,1.0
15380.0,-724.0,-11152.0,4016.0,12235.0,-1578.0,1.0
10720.0,-5616.0,-1524.0,-1306.0,-9472.0,6859.0,1.0
17320.0,-8836.0,-13904.0,1144.0,6696.0,-3506.0,1.0
15680.0,-3376.0,-364.0,-1790.0,-8540.0,5823.0,1.0
16284.0,-10992.0,-14004.0,-149.0,447.0,-1708.0,1.0
13352.0,-2292.0,-2384.0,-398.0,94.0,2272.0,1.0
4284.0,-14852.0,-9496.0,-5371.0,-17278.0,1947.0,1.0
12840.0,-6788.0,-17492.0,-1315.0,13579.0,-4812.0,1.0
13764.0,-6968.0,7184.0,2401.0,-6847.0,2654.0,1.0
15908.0,-10276.0,-25152.0,174.0,3164.0,-4148.0,1.0
14456.0,-9092.0,2492.0,931.0,160.0,4022.0,1.0
14584.0,-15160.0,-16052.0,-2417.0,-1115.0,-4372.0,1.0
11284.0,932.0,1652.0,3642.0,6772.0,-336.0,1.0
13920.0,-10536.0,-9352.0,1080.0,-15383.0,8435.0,1.0
15028.0,-6936.0,-16268.0,554.0,13035.0,-2461.0,1.0
12340.0,-11232.0,5624.0,-2968.0,-8453.0,2635.0,1.0
13404.0,-7932.0,-20716.0,-226.0,3691.0,-7130.0,1.0
14164.0,-5148.0,3956.0,6106.0,9629.0,-279.0,1.0
13064.0,-11732.0,-9832.0,-1946.0,-12909.0,3031.0,1.0
14980.0,-3520.0,-18388.0,2347.0,15207.0,-6265.0,1.0
14428.0,-9844.0,9564.0,-1911.0,-2324.0,1649.0,1.0
9348.0,-12624.0,-17052.0,-2469.0,-15835.0,5926.0,1.0
15284.0,-7504.0,-11476.0,197.0,17813.0,-6489.0,1.0
11676.0,-3760.0,5300.0,-4012.0,-14413.0,5581.0,1.0
13800.0,-10796.0,-21568.0,-1413.0,191.0,-3818.0,1.0
14400.0,-1808.0,-1488.0,3967.0,13148.0,677.0,1.0
10484.0,-6192.0,1324.0,-3324.0,-16271.0,6334.0,1.0
16240.0,-8656.0,-25440.0,2456.0,6916.0,-4885.0,1.0
16864.0,-3068.0,3720.0,6899.0,22185.0,-1796.0,1.0
9624.0,-8928.0,4584.0,-4054.0,-24417.0,8066.0,1.0
17884.0,-9260.0,-28444.0,3157.0,7431.0,-3894.0,1.0
13332.0,-5696.0,3592.0,952.0,14535.0,1826.0,1.0
13772.0,-5072.0,-1204.0,-4552.0,-21415.0,6191.0,1.0
2764.0,-21168.0,-25308.0,-2056.0,-4005.0,1294.0,1.0
12548.0,-7080.0,-2960.0,6094.0,22746.0,-9743.0,1.0
10524.0,3624.0,7560.0,-3235.0,-15020.0,6806.0,1.0
10616.0,-14132.0,-23404.0,-1640.0,-5430.0,-3600.0,1.0
14444.0,-8016.0,-10992.0,7343.0,22249.0,-2604.0,1.0
11628.0,-9180.0,4108.0,-8096.0,-16764.0,6211.0,1.0
16744.0,-4748.0,-20020.0,200.0,4733.0,-5879.0,1.0
12136.0,-8324.0,3496.0,1585.0,2631.0,4403.0,1.0
9308.0,-17000.0,-13984.0,-931.0,-5001.0,-4640.0,1.0
15924.0,-4124.0,-8288.0,-437.0,8795.0,-1792.0,1.0
12956.0,-8044.0,-2948.0,-405.0,-7212.0,4677.0,1.0
14100.0,-7036.0,-13396.0,-1219.0,4297.0,-5583.0,1.0
12704.0,-6564.0,584.0,1154.0,-280.0,4274.0,1.0
12052.0,-11796.0,-10976.0,87.0,-11089.0,7368.0,1.0
16648.0,-11364.0,-15940.0,-1712.0,13350.0,-7151.0,1.0
12936.0,-7016.0,4944.0,-3013.0,-7820.0,3811.0,1.0
12764.0,-15168.0,-17464.0,-1633.0,-4297.0,-172.0,1.0
11856.0,-5080.0,-8344.0,1835.0,14313.0,-3042.0,1.0
11124.0,-6964.0,6468.0,-4459.0,-15682.0,4176.0,1.0
11512.0,-15092.0,-24768.0,2099.0,-822.0,372.0,1.0
12936.0,-5440.0,-3028.0,4062.0,18094.0,-3500.0,1.0
10528.0,-5012.0,3544.0,-3101.0,-19729.0,6087.0,1.0
13824.0,-12424.0,-24180.0,1258.0,4434.0,-3629.0,1.0
14084.0,-5804.0,3112.0,5156.0,9156.0,2759.0,1.0
11092.0,-8044.0,-7772.0,-1653.0,-17358.0,5369.0,1.0
14824.0,-9420.0,-16308.0,-768.0,9468.0,-1437.0,1.0
11940.0,-11356.0,3720.0,2041.0,-2260.0,3982.0,1.0
11208.0,-7004.0,-15284.0,-2449.0,-9926.0,2455.0,1.0
12324.0,-11160.0,-13956.0,546.0,15579.0,-6548.0,1.0
11996.0,-6644.0,5772.0,-1654.0,-6827.0,2321.0,1.0
9496.0,-14000.0,-21012.0,-2829.0,-9768.0,859.0,1.0
14720.0,-6976.0,-9568.0,2644.0,15695.0,-3765.0,1.0
8224.0,-9112.0,3788.0,-3386.0,-11591.0,3622.0,1.0
14308.0,-9252.0,-20788.0,926.0,2900.0,-3333.0,1.0
11464.0,-6896.0,2352.0,2929.0,4339.0,1945.0,1.0
13328.0,-14960.0,-13912.0,-1364.0,-6546.0,1812.0,1.0
13120.0,-5612.0,-6764.0,247.0,8287.0,-1148.0,1.0
10764.0,-10464.0,-5416.0,-2403.0,-9630.0,2307.0,1.0
12712.0,-12436.0,-16804.0,875.0,6167.0,-4410.0,1.0
13516.0,-9164.0,3476.0,381.0,3104.0,-1158.0,1.0
12528.0,-5404.0,-12812.0,-2286.0,-9981.0,3467.0,1.0
12108.0,-12592.0,-14968.0,369.0,8932.0,-1820.0,0.0
10096.0,-8456.0,5676.0,96.0,-2664.0,1026.0,0.0
11812.0,-10048.0,-14576.0,-368.0,-10894.0,3173.0,0.0
13852.0,-8856.0,-16224.0,2367.0,13789.0,-3816.0,0.0
10680.0,-10080.0,6164.0,-1346.0,-3481.0,1135.0,0.0
11188.0,-7660.0,-15776.0,-907.0,-10938.0,2316.0,0.0
13612.0,-10220.0,-15528.0,2141.0,13262.0,-1776.0,0.0
10396.0,-10996.0,4088.0,-2966.0,-6852.0,2598.0,0.0
11484.0,-11772.0,-17216.0,-1556.0,-3640.0,-185.0,0.0
11456.0,-7720.0,-8068.0,1643.0,8874.0,-2149.0,0.0
11828.0,-8948.0,-3660.0,-1994.0,-1180.0,-605.0,0.0
13208.0,-9700.0,-11292.0,-899.0,509.0,-1945.0,0.0
13624.0,-9504.0,-8120.0,-1411.0,3983.0,-970.0,0.0
12632.0,-8432.0,-5892.0,-2432.0,1350.0,-1236.0,0.0
12800.0,-9236.0,-7748.0,-1662.0,247.0,-397.0,0.0
12444.0,-7224.0,-7948.0,-2485.0,-524.0,-174.0,0.0
12952.0,-8644.0,-7692.0,-2734.0,-1675.0,1290.0,0.0
13392.0,-9748.0,-8608.0,-1514.0,-1427.0,470.0,0.0
13176.0,-9484.0,-9104.0,-432.0,-177.0,-588.0,0.0
13364.0,-8180.0,-8804.0,-927.0,272.0,-880.0,0.0
13056.0,-9032.0,-9068.0,-789.0,1068.0,-706.0,0.0
12956.0,-8184.0,-8388.0,-129.0,1222.0,-575.0,0.0
13088.0,-8100.0,-8604.0,-6.0,1299.0,-553.0,0.0
13288.0,-8696.0,-8308.0,-107.0,1656.0,-879.0,0.0
13652.0,-7956.0,-7828.0,-579.0,1134.0,-307.0,0.0
13552.0,-8392.0,-8148.0,-1011.0,884.0,-469.0,0.0
13784.0,-7944.0,-7332.0,-369.0,321.0,-694.0,0.0
13456.0,-7916.0,-7480.0,-662.0,-728.0,-381.0,0.0
13508.0,-7540.0,-8128.0,-364.0,-748.0,-609.0,0.0
12956.0,-7332.0,-8068.0,-286.0,-650.0,82.0,0.0
13096.0,-7960.0,-8016.0,-299.0,-1290.0,523.0,0.0
13284.0,-8212.0,-8524.0,-453.0,-1078.0,-70.0,0.0
13368.0,-7888.0,-8588.0,83.0,-328.0,-55.0,0.0
13252.0,-8056.0,-8412.0,-714.0,-1179.0,-275.0,0.0
13240.0,-7720.0,-8916.0,-1343.0,-1636.0,-548.0,0.0
13128.0,-7476.0,-8936.0,-1502.0,-853.0,-110.0,0.0
12724.0,-7532.0,-8888.0,-1540.0,-597.0,159.0,0.0
12784.0,-7700.0,-9312.0,-1940.0,-1382.0,275.0,0.0
12780.0,-7608.0,-9604.0,-1112.0,-1134.0,400.0,0.0
12968.0,-7284.0,-9420.0,-175.0,-569.0,1318.0,0.0
13080.0,-8156.0,-9804.0,-108.0,-274.0,825.0,0.0
12976.0,-8136.0,-9452.0,-311.0,-167.0,542.0,0.0
12740.0,-7704.0,-9140.0,-873.0,-320.0,-155.0,0.0
12672.0,-7604.0,-9536.0,-524.0,-212.0,-81.0,0.0
12628.0,-7532.0,-9648.0,-1423.0,-130.0,-442.0,0.0
12808.0,-7444.0,-9572.0,-1971.0,-197.0,-163.0,0.0
12880.0,-7432.0,-9756.0,-1644.0,-233.0,-321.0,0.0
12784.0,-6840.0,-9980.0,-1459.0,-300.0,-190.0,0.0
12860.0,-7544.0,-9768.0,-1054.0,-143.0,316.0,0.0
12792.0,-7096.0,-9680.0,-999.0,-225.0,43.0,0.0
12568.0,-7004.0,-10040.0,-847.0,-372.0,101.0,0.0
12692.0,-7384.0,-10452.0,-945.0,-409.0,309.0,0.0
12732.0,-7000.0,-10420.0,-789.0,-63.0,218.0,0.0
12560.0,-6968.0,-9988.0,-1065.0,8.0,345.0,0.0
12496.0,-7220.0,-9996.0,-1088.0,-195.0,236.0,0.0
12592.0,-7056.0,-10044.0,-555.0,-22.0,-109.0,0.0
12772.0,-6936.0,-9912.0,-636.0,226.0,16.0,0.0
12820.0,-7396.0,-10204.0,-352.0,199.0,133.0,0.0
12596.0,-6720.0,-10508.0,-609.0,-179.0,-198.0,0.0
12544.0,-6880.0,-10020.0,-627.0,-346.0,162.0,0.0
12864.0,-7052.0,-10116.0,-648.0,-139.0,-40.0,0.0
12908.0,-7336.0,-10108.0,-619.0,-421.0,-133.0,0.0
12712.0,-6416.0,-10304.0,-1011.0,-453.0,-438.0,0.0
12956.0,-7052.0,-10608.0,-1151.0,-267.0,-530.0,0.0
12828.0,-6740.0,-10264.0,-1525.0,-78.0,-882.0,0.0
12888.0,-7044.0,-10184.0,-1516.0,-396.0,-1145.0,0.0
12784.0,-5712.0,-11104.0,-1360.0,-327.0,-688.0,0.0
12564.0,-6196.0,-10776.0,-579.0,19.0,-212.0,0.0
12736.0,-6204.0,-10416.0,-780.0,-349.0,-291.0,0.0
13012.0,-6180.0,-11068.0,-768.0,75.0,-221.0,0.0
12720.0,-5812.0,-10428.0,-1018.0,-2.0,-393.0,0.0
12840.0,-6156.0,-11024.0,-1085.0,-240.0,-510.0,0.0
12988.0,-6404.0,-10508.0,-1625.0,54.0,-1164.0,0.0
13204.0,-5008.0,-10784.0,-1625.0,141.0,-1176.0,0.0
12892.0,-6040.0,-11048.0,-1190.0,-66.0,-880.0,0.0
13132.0,-4980.0,-11024.0,-716.0,-293.0,-451.0,0.0
13112.0,-5088.0,-11296.0,-616.0,-249.0,-155.0,0.0
13004.0,-5016.0,-11368.0,-506.0,-172.0,-5.0,1.0
13136.0,-5788.0,-11044.0,-324.0,-153.0,476.0,1.0
12868.0,-4900.0,-10764.0,-402.0,134.0,153.0,1.0
12968.0,-5264.0,-11132.0,-229.0,-292.0,-24.0,1.0
13344.0,-5628.0,-11268.0,-447.0,-124.0,-136.0,1.0
12976.0,-5136.0,-11004.0,-323.0,-508.0,108.0,1.0
12880.0,-5064.0,-11128.0,-506.0,-721.0,-83.0,1.0
12872.0,-5680.0,-11584.0,112.0,-509.0,316.0,1.0
12440.0,-5356.0,-12124.0,610.0,-290.0,4.0,1.0
12948.0,-5212.0,-12236.0,2579.0,2888.0,-1626.0,1.0
13716.0,-5404.0,-9916.0,3177.0,1533.0,644.0,1.0
13308.0,-5020.0,-9972.0,1207.0,494.0,642.0,1.0
13012.0,-6908.0,-11032.0,1830.0,167.0,645.0,1.0
12756.0,-5708.0,-11272.0,2591.0,242.0,1981.0,1.0
13696.0,-3888.0,-10580.0,12432.0,-2519.0,7433.0,1.0
9800.0,-13856.0,-14272.0,13778.0,-354.0,8422.0,1.0
16724.0,-300.0,3780.0,-5565.0,8650.0,-8890.0,1.0
12020.0,-6676.0,-12008.0,8764.0,-16596.0,10458.0,1.0
13296.0,-3044.0,-11672.0,-3565.0,17680.0,-4734.0,1.0
10200.0,-12520.0,-144.0,7629.0,-9147.0,5135.0,1.0
13840.0,-4408.0,-15236.0,-188.0,2403.0,-3176.0,1.0
13116.0,-12176.0,2168.0,1063.0,4514.0,1531.0,1.0
9788.0,-9344.0,-11232.0,1133.0,-13160.0,1697.0,1.0
15368.0,-5996.0,-14220.0,-1371.0,14273.0,-12362.0,1.0
13544.0,-8992.0,5616.0,2525.0,-9242.0,7054.0,1.0
14404.0,-9996.0,-18680.0,-31.0,1507.0,-7529.0,1.0
15020.0,-5112.0,96.0,8240.0,3951.0,7722.0,1.0
6252.0,-11176.0,-7968.0,-310.0,-19803.0,9858.0,1.0
14012.0,-6296.0,-19412.0,-551.0,15040.0,-3395.0,1.0
8944.0,-9148.0,6836.0,-3498.0,-8706.0,6882.0,1.0
10624.0,-14300.0,-20012.0,-7426.0,1480.0,-7443.0,1.0
16988.0,-4804.0,-1192.0,4527.0,18181.0,-4327.0,1.0
10568.0,-9548.0,-1728.0,-5036.0,-14946.0,6609.0,1.0
15096.0,-10088.0,-19092.0,2864.0,11776.0,-9149.0,1.0
13536.0,-7380.0,5264.0,1205.0,1041.0,4653.0,1.0
14960.0,-11880.0,-15716.0,-4420.0,89.0,-3486.0,1.0
13624.0,-8412.0,1584.0,7576.0,3493.0,4001.0,1.0
17400.0,-540.0,-4284.0,-3813.0,-21998.0,17451.0,1.0
8964.0,-20592.0,-21472.0,-3127.0,10799.0,-7345.0,1.0
12016.0,-7756.0,5564.0,69.0,781.0,-1556.0,1.0
7648.0,-8356.0,-11412.0,-8351.0,-10166.0,-4891.0,1.0
12920.0,-7756.0,-14972.0,8050.0,15161.0,-5856.0,1.0
10448.0,-4864.0,6436.0,1565.0,-8803.0,10389.0,1.0
9404.0,-19976.0,-22960.0,-4766.0,-1400.0,-5150.0,1.0
15428.0,-6124.0,-3704.0,10305.0,13400.0,14.0,1.0
9364.0,-7504.0,1640.0,-4086.0,-15780.0,8359.0,1.0
15068.0,-13616.0,-18212.0,2307.0,9211.0,-7555.0,1.0
10932.0,-3752.0,-260.0,-738.0,-6893.0,9638.0,1.0
-1752.0,-31528.0,-10444.0,-8378.0,-14687.0,3554.0,1.0
13456.0,-7380.0,-15400.0,-2600.0,20699.0,-14515.0,1.0
9640.0,-5280.0,5260.0,-8234.0,-9987.0,1652.0,1.0
10564.0,-4072.0,-18756.0,9168.0,-1212.0,-730.0,1.0
10536.0,-13380.0,-8604.0,-1084.0,14954.0,-4320.0,1.0
10356.0,-13772.0,-3008.0,-5555.0,1196.0,-1311.0,1.0
12792.0,-8100.0,-10304.0,2293.0,-12872.0,7828.0,1.0
13228.0,-3440.0,-16816.0,-2891.0,12872.0,-10355.0,1.0
10516.0,-10984.0,5772.0,1892.0,149.0,-1803.0,1.0
6824.0,-12348.0,-14060.0,-4448.0,-18034.0,4362.0,1.0
11364.0,-9564.0,-18332.0,596.0,22275.0,-11418.0,1.0
11316.0,-4280.0,10176.0,-3196.0,-16934.0,6757.0,1.0
9540.0,-18584.0,-23748.0,-3552.0,-1293.0,-5009.0,1.0
13004.0,-6696.0,-5816.0,329.0,22189.0,-7360.0,1.0
10276.0,-7012.0,228.0,-10996.0,-20423.0,4573.0,1.0
10576.0,-11724.0,-25156.0,1886.0,7313.0,-3500.0,1.0
14444.0,-4652.0,3916.0,7665.0,23550.0,-1800.0,1.0
11128.0,-6728.0,-704.0,-4587.0,-23320.0,7052.0,1.0
12616.0,-6968.0,-24596.0,3366.0,7413.0,-3041.0,0.0
15816.0,-10732.0,4808.0,2390.0,18496.0,-1516.0,0.0
10836.0,-8508.0,-2544.0,-5883.0,-20973.0,4275.0,0.0
13268.0,-10136.0,-23032.0,1737.0,9382.0,-5623.0,0.0
15096.0,-6280.0,6484.0,6520.0,16008.0,-3466.0,0.0
11360.0,-9240.0,-1212.0,-7158.0,-25985.0,7637.0,0.0
11136.0,-11304.0,-27260.0,3832.0,11131.0,-6520.0,0.0
14080.0,-5652.0,1980.0,3299.0,23717.0,-4423.0,0.0
9864.0,-11332.0,5748.0,-8626.0,-26831.0,6341.0,0.0
13380.0,-10724.0,-25244.0,2957.0,3142.0,-4806.0,0.0
14728.0,-4976.0,-780.0,5655.0,20928.0,-4657.0,0.0
9132.0,-9560.0,2524.0,-5423.0,-20947.0,6060.0,0.0
8500.0,-13932.0,-22236.0,201.0,-4274.0,1773.0,0.0
15488.0,-5856.0,-8808.0,5384.0,20396.0,-5704.0,0.0
12328.0,-7800.0,9148.0,-4837.0,-14853.0,4921.0,0.0
8828.0,-14424.0,-22304.0,-1728.0,-7875.0,-619.0,0.0
14748.0,-6852.0,-10208.0,3769.0,21628.0,-4023.0,0.0
9392.0,-9272.0,6320.0,-7002.0,-15367.0,4349.0,0.0
11380.0,-8932.0,-19340.0,-532.0,-2746.0,-108.0,0.0
13476.0,-8868.0,-5804.0,3426.0,15003.0,-1026.0,0.0
11600.0,-10924.0,1640.0,-5265.0,-9098.0,-121.0,0.0
11780.0,-7476.0,-14396.0,-1758.0,-3994.0,633.0,0.0
13772.0,-7608.0,-11576.0,-5160.0,1358.0,1940.0,0.0
12424.0,-12092.0,-4660.0,-791.0,4336.0,-1414.0,0.0
11824.0,-6888.0,-6368.0,-65.0,-8528.0,3122.0,0.0
11148.0,-12560.0,-16400.0,58.0,1119.0,1698.0,0.0
12472.0,-11256.0,-4428.0,632.0,5601.0,-1652.0,0.0
10844.0,-8988.0,-5380.0,-2275.0,-585.0,-1518.0,0.0
11188.0,-8704.0,-11596.0,-3967.0,-131.0,-1017.0,0.0
12380.0,-10060.0,-9984.0,-4491.0,4670.0,-1202.0,0.0
12792.0,-10480.0,-5840.0,-654.0,1557.0,68.0,0.0
13044.0,-7720.0,-7568.0,-2492.0,-773.0,-960.0,0.0
12512.0,-8752.0,-9284.0,-1125.0,-575.0,195.0,0.0
12372.0,-8900.0,-8012.0,-828.0,474.0,5.0,0.0
12636.0,-9704.0,-7940.0,-258.0,-158.0,-156.0,0.0
12976.0,-8768.0,-8628.0,-172.0,-1291.0,402.0,0.0
12664.0,-9460.0,-9476.0,-347.0,-225.0,-645.0,0.0
12664.0,-8828.0,-9568.0,233.0,-82.0,-71.0,0.0
12448.0,-8840.0,-8952.0,-441.0,762.0,-554.0,0.0
12352.0,-8364.0,-8220.0,-14.0,379.0,-109.0,0.0
12440.0,-8424.0,-8012.0,-705.0,-121.0,-43.0,0.0
12144.0,-8180.0,-8520.0,-183.0,-80.0,-334.0,0.0
12636.0,-8124.0,-8716.0,-348.0,-578.0,454.0,0.0
12428.0,-9392.0,-8856.0,-85.0,139.0,394.0,0.0
12580.0,-8936.0,-8256.0,-606.0,-255.0,-96.0,0.0
12832.0,-8848.0,-8924.0,-781.0,-347.0,-429.0,0.0
12812.0,-8880.0,-8920.0,25.0,-208.0,-159.0,0.0
12424.0,-8276.0,-8496.0,-320.0,394.0,-127.0,0.0
12408.0,-8896.0,-8568.0,-200.0,-146.0,-100.0,0.0
12664.0,-8424.0,-9080.0,-575.0,-490.0,-57.0,0.0
12636.0,-8964.0,-9608.0,-748.0,506.0,-379.0,0.0
12696.0,-8296.0,-9024.0,-478.0,1319.0,-478.0,0.0
12964.0,-8516.0,-8404.0,-1087.0,1255.0,26.0,0.0
13156.0,-8844.0,-8116.0,-1097.0,1413.0,-563.0,0.0
13020.0,-8544.0,-8244.0,-1702.0,746.0,-708.0,0.0
13160.0,-8516.0,-8304.0,-1381.0,627.0,-529.0,0.0
13104.0,-7992.0,-8324.0,-1037.0,734.0,-719.0,0.0
12916.0,-7928.0,-8264.0,-1431.0,309.0,-825.0,0.0
12936.0,-7536.0,-8440.0,-1690.0,-171.0,-644.0,0.0
13192.0,-8048.0,-8816.0,-1770.0,-43.0,-906.0,0.0
13332.0,-7672.0,-8872.0,-1678.0,175.0,-865.0,0.0
13516.0,-7396.0,-9204.0,-1992.0,469.0,-1311.0,0.0
13624.0,-6720.0,-9164.0,-1821.0,1473.0,-1203.0,0.0
13432.0,-6968.0,-8580.0,-1425.0,1027.0,-266.0,0.0
13400.0,-6304.0,-8588.0,-1387.0,342.0,-211.0,0.0
13852.0,-6860.0,-8952.0,-1263.0,346.0,14.0,0.0
13616.0,-7056.0,-8864.0,-434.0,1578.0,296.0,0.0
14136.0,-6328.0,-8376.0,-441.0,1518.0,428.0,0.0
14052.0,-7184.0,-7984.0,-305.0,1823.0,464.0,0.0
13864.0,-6664.0,-7860.0,-1038.0,524.0,-2.0,0.0
13796.0,-6580.0,-8352.0,-814.0,-37.0,825.0,0.0
13692.0,-7704.0,-8524.0,-1506.0,267.0,225.0,0.0
13812.0,-6884.0,-7964.0,-1461.0,19.0,-151.0,0.0
13536.0,-7272.0,-8224.0,-1495.0,-105.0,-591.0,0.0
13696.0,-6392.0,-8440.0,-1483.0,131.0,-1062.0,0.0
14008.0,-6704.0,-8632.0,-1408.0,347.0,-701.0,0.0
14252.0,-5564.0,-8448.0,-2071.0,-256.0,-843.0,0.0
14052.0,-6520.0,-8628.0,-391.0,-545.0,433.0,0.0
14032.0,-6344.0,-8616.0,-914.0,-372.0,-389.0,0.0
14288.0,-6440.0,-8836.0,-980.0,-523.0,-264.0,0.0
14352.0,-5892.0,-9012.0,-916.0,-139.0,-270.0,0.0
13996.0,-6116.0,-8756.0,-1027.0,-133.0,-270.0,0.0
14164.0,-6208.0,-8884.0,-468.0,-217.0,175.0,0.0
14080.0,-6204.0,-8784.0,-337.0,161.0,-311.0,0.0
14116.0,-6112.0,-8796.0,-138.0,-164.0,-105.0,0.0
13948.0,-6016.0,-9028.0,-599.0,-315.0,-533.0,0.0
13768.0,-5548.0,-9288.0,-718.0,-192.0,-230.0,0.0
13960.0,-6196.0,-9108.0,-563.0,-4.0,222.0,0.0
13780.0,-5716.0,-8828.0,-617.0,-215.0,-288.0,0.0
13596.0,-6000.0,-9224.0,-310.0,-357.0,61.0,0.0
13848.0,-6076.0,-8652.0,-143.0,-420.0,341.0,0.0
14076.0,-5584.0,-9200.0,-385.0,-577.0,47.0,0.0
14384.0,-5876.0,-9376.0,-452.0,-512.0,221.0,0.0
14340.0,-6272.0,-9456.0,-232.0,-5.0,145.0,0.0
14080.0,-6132.0,-8932.0,-322.0,-100.0,-152.0,0.0
13908.0,-5572.0,-9012.0,-233.0,-392.0,261.0,0.0
13748.0,-5824.0,-9220.0,-412.0,-116.0,-128.0,0.0
13812.0,-5760.0,-9000.0,-162.0,-62.0,459.0,0.0
13924.0,-5932.0,-8832.0,76.0,-284.0,404.0,0.0
13768.0,-6168.0,-9312.0,-209.0,-221.0,-201.0,0.0
13888.0,-5812.0,-9096.0,-40.0,-407.0,249.0,0.0
13952.0,-6124.0,-9172.0,-87.0,-431.0,74.0,0.0
14032.0,-5844.0,-9416.0,-600.0,-304.0,-204.0,0.0
13840.0,-6092.0,-9372.0,-299.0,-362.0,80.0,0.0
13784.0,-5964.0,-9048.0,11.0,-474.0,421.0,0.0
13680.0,-5772.0,-9372.0,-533.0,-591.0,-101.0,0.0
13784.0,-5728.0,-9508.0,-283.0,-588.0,169.0,0.0
13816.0,-6116.0,-9032.0,40.0,-704.0,612.0,0.0
13884.0,-6224.0,-9280.0,-334.0,-505.0,33.0,0.0
13948.0,-6420.0,-9612.0,93.0,-299.0,273.0,0.0
13948.0,-5688.0,-9268.0,30.0,214.0,397.0,0.0
13680.0,-5820.0,-9268.0,-333.0,-193.0,54.0,0.0
13488.0,-6356.0,-9400.0,-332.0,-371.0,10.0,0.0
13840.0,-6112.0,-9364.0,22.0,-237.0,318.0,0.0
13372.0,-5696.0,-9124.0,-146.0,-303.0,330.0,0.0
13516.0,-6152.0,-9468.0,-299.0,-814.0,405.0,0.0
13396.0,-6516.0,-9696.0,-364.0,-860.0,172.0,0.0
13612.0,-6404.0,-9820.0,-55.0,-378.0,232.0,0.0
13428.0,-5860.0,-9724.0,-216.0,-346.0,383.0,0.0
13260.0,-6708.0,-9848.0,-245.0,-548.0,100.0,0.0
13552.0,-5844.0,-9788.0,-231.0,-440.0,301.0,0.0
13196.0,-6444.0,-10052.0,-447.0,-353.0,364.0,0.0
13384.0,-6364.0,-9464.0,-193.0,-359.0,671.0,0.0
13336.0,-6440.0,-9544.0,-341.0,-459.0,342.0,0.0
13180.0,-6608.0,-9824.0,-400.0,-603.0,199.0,0.0
13136.0,-6256.0,-9992.0,-352.0,-549.0,416.0,0.0
12948.0,-6528.0,-9964.0,-418.0,-644.0,466.0,0.0
13164.0,-6720.0,-9976.0,-366.0,-800.0,567.0,0.0
13056.0,-6572.0,-10020.0,-79.0,-364.0,461.0,0.0
13176.0,-6484.0,-10028.0,-90.0,-414.0,483.0,0.0
12920.0,-6892.0,-10236.0,-129.0,-436.0,127.0,0.0
12896.0,-6568.0,-10164.0,94.0,-437.0,555.0,0.0
12960.0,-6996.0,-10388.0,98.0,-336.0,393.0,0.0
12908.0,-6852.0,-10256.0,161.0,-133.0,378.0,0.0
12908.0,-7128.0,-10440.0,-396.0,34.0,59.0,0.0
12924.0,-6984.0,-10224.0,91.0,-20.0,81.0,0.0
12624.0,-6700.0,-10088.0,57.0,-83.0,327.0,0.0
12780.0,-7052.0,-10092.0,66.0,-245.0,410.0,0.0
12712.0,-7088.0,-9988.0,-238.0,-283.0,124.0,0.0
12908.0,-6488.0,-10284.0,-243.0,-179.0,227.0,0.0
12792.0,-7576.0,-10024.0,-137.0,-9.0,200.0,0.0
12776.0,-7084.0,-10032.0,49.0,-195.0,113.0,0.0
12732.0,-7080.0,-9996.0,-98.0,-161.0,-119.0,0.0
12724.0,-7164.0,-10280.0,-28.0,-191.0,-129.0,0.0
12728.0,-7104.0,-10436.0,-145.0,-202.0,81.0,0.0
12612.0,-7476.0,-10260.0,-1.0,-48.0,71.0,1.0
12588.0,-6980.0,-10056.0,-69.0,15.0,-47.0,1.0
12524.0,-6736.0,-10060.0,-244.0,-338.0,2.0,1.0
12592.0,-6900.0,-10084.0,-161.0,-573.0,290.0,1.0
12512.0,-7156.0,-10852.0,-489.0,-1073.0,68.0,1.0
12796.0,-7328.0,-11040.0,139.0,-1178.0,734.0,1.0
14052.0,-7616.0,-11604.0,370.0,-1927.0,740.0,1.0
14844.0,-10852.0,-20552.0,8211.0,-1583.0,721.0,1.0
11016.0,-5372.0,-5916.0,15778.0,32767.0,-20448.0,1.0
11448.0,-2780.0,18848.0,5523.0,-32652.0,15206.0,1.0
6280.0,-18188.0,-27720.0,7898.0,-10850.0,5397.0,1.0
13728.0,-7612.0,-3468.0,10226.0,14807.0,-342.0,1.0
6184.0,-9096.0,-1904.0,-2769.0,-6490.0,864.0,1.0
14544.0,-12608.0,-16028.0,1181.0,7363.0,-9554.0,1.0
19116.0,-4784.0,3884.0,486.0,-8034.0,8902.0,1.0
4628.0,-21968.0,-12436.0,-918.0,-10507.0,288.0,1.0
19672.0,-3264.0,-9596.0,4684.0,12265.0,-6389.0,1.0
9904.0,-6252.0,1060.0,-5183.0,-11499.0,7325.0,1.0
16220.0,-14964.0,-14868.0,-563.0,7577.0,-8035.0,1.0
15968.0,-2244.0,6528.0,3458.0,-2415.0,7568.0,1.0
4660.0,-16124.0,-12352.0,-3851.0,-15258.0,3375.0,1.0
14940.0,-8216.0,-16980.0,-2959.0,13428.0,-4374.0,1.0
7656.0,-12228.0,1940.0,-6212.0,-8835.0,4418.0,1.0
13712.0,-11016.0,-16784.0,-1664.0,3178.0,-5155.0,1.0
13872.0,-7328.0,-1260.0,4488.0,6478.0,1008.0,1.0
10552.0,-12560.0,-9964.0,-333.0,-4114.0,-1541.0,1.0
14944.0,-10260.0,-15912.0,-566.0,18187.0,-11761.0,1.0
19656.0,-2156.0,12576.0,-2685.0,8949.0,-1032.0,1.0
7968.0,-5340.0,-9716.0,-4115.0,-27039.0,10570.0,1.0
16052.0,-11800.0,-18272.0,1053.0,12860.0,-6615.0,1.0
18952.0,-6176.0,5348.0,2954.0,5505.0,4208.0,1.0
5360.0,-16148.0,-7076.0,309.0,-19877.0,5331.0,1.0
15772.0,-5620.0,-13212.0,2657.0,12919.0,-4560.0,1.0
11388.0,-6488.0,2860.0,-352.0,-6330.0,6323.0,1.0
12156.0,-20876.0,-15788.0,-816.0,-1370.0,-4178.0,1.0
10152.0,-2596.0,-9592.0,-1669.0,23928.0,-9494.0,1.0
11692.0,-7960.0,6280.0,-3283.0,-22580.0,13045.0,1.0
11132.0,-18212.0,-21260.0,333.0,5872.0,-7995.0,1.0
18432.0,-652.0,952.0,3624.0,13961.0,-3202.0,1.0
6480.0,-10052.0,-2772.0,-4098.0,-15830.0,7345.0,1.0
17320.0,-11588.0,-12668.0,3724.0,8481.0,-6651.0,1.0
13944.0,-1016.0,1380.0,-1921.0,-4998.0,8167.0,1.0
14568.0,-11780.0,3480.0,-8275.0,-31351.0,18767.0,1.0
6712.0,-17224.0,-32456.0,6484.0,12338.0,-14841.0,1.0
16204.0,-1136.0,4876.0,1367.0,21766.0,-6697.0,1.0
2040.0,-6608.0,1552.0,-5066.0,-27242.0,11147.0,1.0
12452.0,-12640.0,-20648.0,3311.0,-1238.0,-2082.0,1.0
12740.0,-7212.0,-6456.0,-775.0,4510.0,178.0,1.0
15128.0,-13128.0,1916.0,-3902.0,-21065.0,10255.0,1.0
2512.0,-17672.0,-26360.0,4386.0,-713.0,-5512.0,1.0
16584.0,-4644.0,-5616.0,4198.0,23256.0,-10142.0,1.0
5716.0,-5252.0,4504.0,-3764.0,-15911.0,6524.0,1.0
9648.0,-18016.0,-21804.0,1397.0,647.0,-2927.0,1.0
15108.0,-4220.0,-5392.0,2883.0,8399.0,-2213.0,1.0
7576.0,-12896.0,-5568.0,-1880.0,-2191.0,-3941.0,1.0
10460.0,-9892.0,-13332.0,1091.0,12406.0,-12533.0,1.0
14832.0,-2440.0,-1112.0,-1770.0,-14724.0,14088.0,1.0
3008.0,-27140.0,-17080.0,-3557.0,-15947.0,2502.0,1.0
19164.0,-8016.0,-13388.0,5636.0,20913.0,-11294.0,1.0
12572.0,-5056.0,4820.0,-4142.0,-4151.0,4887.0,1.0
7120.0,-9536.0,-13912.0,-2413.0,-4609.0,-3456.0,1.0
14196.0,-9432.0,-9276.0,4581.0,13152.0,-1802.0,1.0
15328.0,-6240.0,4204.0,-1267.0,-20315.0,10993.0,1.0
3424.0,-21748.0,-19048.0,-2817.0,-7710.0,-1461.0,1.0
15844.0,-9976.0,-11436.0,7498.0,20475.0,-10865.0,1.0
10556.0,-1552.0,4956.0,-4851.0,-357.0,-1728.0,1.0
7524.0,-17680.0,-16840.0,3272.0,-5746.0,-1499.0,1.0
15356.0,-6688.0,-10672.0,646.0,16181.0,-6584.0,1.0
14472.0,-5684.0,4848.0,-1755.0,-23971.0,16031.0,1.0
5208.0,-23972.0,-19320.0,5612.0,-7000.0,-5458.0,1.0
15884.0,-1956.0,-7120.0,2854.0,20279.0,-6939.0,1.0
7184.0,-8604.0,-20.0,-6692.0,-17139.0,5545.0,1.0
10224.0,-13012.0,-19596.0,574.0,9201.0,-6552.0,1.0
14572.0,-6024.0,-3476.0,4982.0,16312.0,-1204.0,1.0
9048.0,-8052.0,-1868.0,-4978.0,-27711.0,14471.0,1.0
11296.0,-17884.0,-22472.0,12989.0,8115.0,-9895.0,1.0
14428.0,-4572.0,-1780.0,-3373.0,14370.0,-4991.0,1.0
6340.0,-11732.0,-1048.0,-4281.0,-20159.0,8506.0,1.0
12304.0,-12660.0,-19420.0,2856.0,7925.0,-6207.0,1.0
13788.0,-7164.0,3192.0,-2218.0,12138.0,-4726.0,1.0
10000.0,-9508.0,-6280.0,318.0,-23842.0,10944.0,1.0
10772.0,-18228.0,-21064.0,-2069.0,9104.0,-5361.0,1.0
11976.0,-6348.0,-1412.0,2054.0,9417.0,-10.0,1.0
7760.0,-7980.0,-2264.0,-4599.0,-16230.0,5940.0,1.0
10808.0,-14328.0,-20320.0,1458.0,13514.0,-8660.0,1.0
14368.0,-5292.0,5072.0,4070.0,4199.0,2347.0,1.0
7332.0,-11644.0,-7616.0,-3961.0,-27636.0,12051.0,1.0
13148.0,-14568.0,-25416.0,2220.0,19882.0,-12222.0,1.0
11092.0,-3864.0,7872.0,-1577.0,5996.0,4336.0,1.0
3780.0,-10128.0,-5604.0,-5011.0,-31134.0,6983.0,1.0
12776.0,-10608.0,-23956.0,6947.0,13573.0,-5863.0,1.0
13132.0,-6112.0,4908.0,-3347.0,-1940.0,6281.0,1.0
8424.0,-16732.0,-15968.0,410.0,-11274.0,492.0,1.0
9824.0,-11728.0,-15312.0,3483.0,16644.0,-5912.0,1.0
11504.0,-7032.0,6652.0,-2753.0,-9473.0,4247.0,1.0
7056.0,-14696.0,-19012.0,643.0,-17085.0,6200.0,1.0
12028.0,-10852.0,-16620.0,5868.0,20797.0,-7087.0,1.0
10868.0,-4288.0,8368.0,-3206.0,-1848.0,1849.0,1.0
8476.0,-15164.0,-10032.0,-1608.0,-20728.0,8308.0,1.0
11320.0,-13920.0,-21052.0,3521.0,13707.0,-8663.0,1.0
14916.0,-9212.0,2040.0,-644.0,18698.0,-6266.0,1.0
8480.0,-5028.0,36.0,-5626.0,-22208.0,9502.0,1.0
5172.0,-16804.0,-21448.0,1333.0,-2545.0,-2460.0,1.0
12168.0,-7408.0,-8848.0,7601.0,25909.0,-9673.0,1.0
11692.0,-4028.0,9148.0,-4269.0,-11333.0,7729.0,1.0
4884.0,-18832.0,-15640.0,-3409.0,-25255.0,6688.0,1.0
12464.0,-11168.0,-25444.0,7027.0,24040.0,-14047.0,1.0
12952.0,-4872.0,10968.0,834.0,4923.0,1736.0,1.0
3780.0,-14864.0,-7032.0,-4759.0,-32534.0,11518.0,1.0
13520.0,-12668.0,-26116.0,8282.0,15710.0,-7731.0,1.0
13056.0,-3592.0,6844.0,-2698.0,3710.0,2522.0,1.0
4968.0,-16872.0,-7832.0,-1629.0,-24799.0,10794.0,1.0
13248.0,-11236.0,-24528.0,5951.0,17747.0,-11145.0,1.0
11312.0,-6360.0,7064.0,1642.0,7539.0,644.0,1.0
5488.0,-14132.0,-7092.0,-3034.0,-22610.0,6894.0,1.0
13332.0,-11360.0,-23484.0,4412.0,11861.0,-5712.0,1.0
10060.0,-5124.0,6212.0,-241.0,9985.0,75.0,0.0
7936.0,-10480.0,-1196.0,-8809.0,-32768.0,16609.0,0.0
10256.0,-17584.0,-29656.0,2451.0,11812.0,-8302.0,0.0
10792.0,-8896.0,2524.0,268.0,16531.0,-5476.0,0.0
7068.0,-8572.0,-1888.0,-5073.0,-16004.0,7055.0,0.0
9524.0,-12848.0,-18280.0,384.0,2502.0,-2133.0,0.0
11264.0,-10216.0,-5212.0,938.0,9309.0,-2044.0,0.0
11616.0,-10720.0,-4712.0,-1867.0,-1653.0,-265.0,0.0
10856.0,-11060.0,-11412.0,-3080.0,-992.0,-1650.0,0.0
11620.0,-9664.0,-9016.0,-1111.0,2494.0,-526.0,0.0
10592.0,-10496.0,-6440.0,-903.0,1277.0,384.0,0.0
10732.0,-10452.0,-7756.0,-1865.0,-1620.0,866.0,0.0
10860.0,-11064.0,-9552.0,-697.0,-372.0,1164.0,0.0
10968.0,-11240.0,-8444.0,-498.0,873.0,515.0,0.0
10836.0,-10768.0,-8004.0,-26.0,977.0,258.0,0.0
11160.0,-10700.0,-8276.0,-570.0,85.0,39.0,0.0
10876.0,-10476.0,-8664.0,-302.0,616.0,463.0,0.0
11032.0,-10968.0,-8244.0,-199.0,643.0,173.0,0.0
10880.0,-10900.0,-7640.0,-378.0,785.0,-151.0,0.0
10596.0,-10528.0,-7832.0,-306.0,131.0,71.0,0.0
10780.0,-10864.0,-8192.0,-77.0,376.0,-64.0,0.0
11416.0,-11020.0,-8364.0,-41.0,1827.0,-632.0,0.0
11008.0,-10660.0,-7668.0,-614.0,2122.0,-1113.0,0.0
11260.0,-10172.0,-7440.0,-386.0,956.0,-675.0,0.0
11856.0,-10704.0,-7656.0,173.0,784.0,-104.0,0.0
11556.0,-10964.0,-6752.0,283.0,-1178.0,865.0,0.0
11332.0,-10736.0,-7632.0,1368.0,-1204.0,313.0,0.0
11440.0,-10852.0,-7848.0,1172.0,-1229.0,361.0,0.0
10832.0,-11084.0,-8360.0,327.0,-566.0,-346.0,0.0
10808.0,-10680.0,-8412.0,338.0,-386.0,-255.0,0.0
11148.0,-10464.0,-8220.0,-197.0,118.0,-308.0,0.0
11036.0,-10768.0,-8164.0,-855.0,518.0,-655.0,0.0
11428.0,-10804.0,-8192.0,-1699.0,1264.0,-1221.0,0.0
11752.0,-10452.0,-8064.0,75.0,1782.0,-242.0,0.0
11796.0,-10296.0,-7368.0,-1181.0,1605.0,-1115.0,0.0
11844.0,-9352.0,-7328.0,220.0,1144.0,352.0,0.0
11748.0,-11068.0,-7108.0,-649.0,760.0,21.0,0.0
12200.0,-10628.0,-7052.0,148.0,761.0,180.0,0.0
11736.0,-10404.0,-7028.0,-210.0,428.0,-4.0,0.0
11844.0,-10316.0,-7172.0,-378.0,413.0,-83.0,0.0
11580.0,-10620.0,-7172.0,28.0,323.0,215.0,0.0
11672.0,-10776.0,-7212.0,-651.0,575.0,-345.0,0.0
11956.0,-10472.0,-6840.0,67.0,480.0,167.0,0.0
11700.0,-10412.0,-6840.0,-127.0,476.0,-89.0,0.0
11864.0,-10572.0,-6848.0,-244.0,238.0,-250.0,0.0
11744.0,-10584.0,-6744.0,-80.0,153.0,-110.0,0.0
11928.0,-10368.0,-6900.0,-374.0,-117.0,33.0,0.0
11812.0,-10888.0,-6988.0,-366.0,-57.0,-81.0,0.0
11892.0,-10512.0,-7088.0,-417.0,259.0,-201.0,0.0
11688.0,-10484.0,-6964.0,-162.0,202.0,4.0,0.0
12108.0,-10492.0,-6964.0,-194.0,530.0,-257.0,0.0
12052.0,-10328.0,-6944.0,-135.0,368.0,-210.0,0.0
12024.0,-10256.0,-6792.0,9.0,467.0,-179.0,0.0
11964.0,-10392.0,-6832.0,-322.0,42.0,16.0,0.0
12036.0,-10660.0,-6824.0,-154.0,36.0,-123.0,0.0
12180.0,-10396.0,-6828.0,69.0,154.0,-135.0,1.0
12104.0,-10424.0,-6760.0,-99.0,239.0,-322.0,1.0
12100.0,-10260.0,-6768.0,-64.0,301.0,-68.0,1.0
12120.0,-10196.0,-6424.0,-128.0,300.0,-118.0,1.0
12228.0,-10392.0,-6640.0,-263.0,127.0,-20.0,1.0
12260.0,-10384.0,-6436.0,88.0,506.0,-220.0,1.0
12172.0,-10504.0,-6416.0,-97.0,149.0,-120.0,1.0
12164.0,-10368.0,-6164.0,-99.0,138.0,-32.0,1.0
12216.0,-10328.0,-6136.0,-24.0,45.0,-117.0,1.0
12108.0,-10560.0,-6428.0,-106.0,-312.0,-31.0,1.0
12344.0,-10520.0,-6856.0,-214.0,-424.0,-135.0,1.0
12584.0,-11588.0,-7448.0,-88.0,-16.0,-420.0,1.0
11372.0,-16960.0,-8004.0,-10417.0,16156.0,-19396.0,1.0
22560.0,-576.0,6436.0,8582.0,-28603.0,10228.0,1.0
-4116.0,-32768.0,-25124.0,14714.0,-1490.0,-4179.0,1.0
18724.0,1444.0,-752.0,9271.0,14269.0,-6711.0,1.0
2056.0,-9844.0,732.0,-10533.0,-15371.0,4413.0,1.0
15632.0,-10996.0,-16212.0,6248.0,5788.0,-1282.0,1.0
14652.0,-5112.0,1776.0,-5139.0,-2395.0,-674.0,1.0
9180.0,-21272.0,-16056.0,1685.0,3695.0,-5888.0,1.0
18212.0,-928.0,3532.0,590.0,9580.0,-3275.0,1.0
8592.0,-12332.0,-8576.0,409.0,-12292.0,6791.0,1.0
18260.0,-8472.0,-8788.0,1997.0,10304.0,-5779.0,1.0
13444.0,-8380.0,380.0,45.0,-11892.0,7258.0,1.0
13060.0,-20212.0,-15792.0,-1075.0,7839.0,-8125.0,1.0
12368.0,916.0,1536.0,4880.0,13851.0,-2475.0,1.0
7444.0,-6756.0,-6904.0,-6536.0,-12434.0,3995.0,1.0
11584.0,-11540.0,-9744.0,1838.0,12928.0,-1549.0,1.0
16372.0,-8836.0,-3160.0,3097.0,4244.0,7020.0,1.0
11028.0,-7456.0,-5880.0,-9716.0,-13932.0,8076.0,1.0
5196.0,-25020.0,-16644.0,4172.0,9539.0,-5226.0,1.0
15172.0,-1352.0,8972.0,4965.0,11647.0,-7793.0,1.0
5428.0,-13212.0,-10596.0,-4926.0,-14891.0,3609.0,1.0
18760.0,-7776.0,-11500.0,6198.0,7143.0,1813.0,1.0
11104.0,-8560.0,5792.0,-2048.0,-1629.0,2426.0,1.0
14156.0,-7080.0,-8496.0,-1915.0,-10002.0,7284.0,1.0
14040.0,-13640.0,-7680.0,-1660.0,5801.0,2694.0,1.0
12364.0,-9900.0,2524.0,-2701.0,-5759.0,6301.0,1.0
12228.0,-12876.0,-10424.0,-5630.0,-5983.0,-509.0,1.0
10152.0,-12348.0,-11132.0,3660.0,6860.0,-5068.0,1.0
7316.0,-5792.0,4636.0,-1828.0,17102.0,-14219.0,1.0
13288.0,-2664.0,-2544.0,811.0,-24198.0,14242.0,1.0
12176.0,-23256.0,-19720.0,1902.0,16496.0,-12522.0,1.0
15408.0,-1072.0,7204.0,9970.0,5893.0,-1396.0,1.0
3080.0,-7008.0,-1612.0,-9206.0,-30715.0,13352.0,1.0
15436.0,-15640.0,-20472.0,1184.0,8550.0,-8051.0,1.0
11012.0,-5916.0,2700.0,5782.0,-822.0,8074.0,1.0
13416.0,-9856.0,-6828.0,-5273.0,-7757.0,-5629.0,1.0
14996.0,-10836.0,-12804.0,651.0,9146.0,-5938.0,1.0
13804.0,-5272.0,2808.0,124.0,-4112.0,-179.0,1.0
12500.0,-10340.0,-13520.0,-1425.0,-3142.0,-4984.0,1.0
8224.0,-9020.0,-12928.0,1256.0,31369.0,-29120.0,1.0
17928.0,-5924.0,14188.0,18394.0,-16124.0,17100.0,1.0
7528.0,-14304.0,-12292.0,-8439.0,-19641.0,2813.0,1.0
19644.0,-6680.0,-17340.0,8156.0,18101.0,-4297.0,1.0
9836.0,-3480.0,16476.0,-4033.0,-882.0,9291.0,1.0
10548.0,-12496.0,-15540.0,-2237.0,-17587.0,-2536.0,1.0
16920.0,-9272.0,-10880.0,-571.0,19262.0,-2354.0,1.0
17120.0,-3356.0,12800.0,-2579.0,-12185.0,5973.0,1.0
-248.0,-16444.0,-19576.0,-1545.0,-32768.0,15333.0,1.0
13532.0,-13232.0,-19492.0,5143.0,16558.0,-7030.0,1.0
12892.0,-2676.0,8876.0,377.0,6473.0,-3156.0,1.0
4956.0,-13184.0,-9512.0,-4052.0,-28965.0,12453.0,1.0
11332.0,-11712.0,-26820.0,4214.0,27472.0,-18928.0,1.0
16432.0,-3064.0,16024.0,9140.0,-1910.0,7785.0,1.0
5080.0,-14976.0,-10280.0,-1905.0,-24345.0,3961.0,1.0
17100.0,-4264.0,-22028.0,3654.0,11650.0,-4083.0,1.0
8804.0,-13368.0,6152.0,-4558.0,2875.0,-2864.0,1.0
11504.0,-12020.0,-7752.0,-2436.0,-13488.0,2589.0,1.0
10944.0,-9760.0,-20356.0,1592.0,9534.0,-3557.0,1.0
13320.0,-5648.0,3540.0,-3045.0,27350.0,-14625.0,1.0
10588.0,-7244.0,2288.0,-3386.0,-21042.0,11381.0,1.0
9632.0,-13716.0,-19952.0,1534.0,-3152.0,-575.0,1.0
15424.0,-5716.0,-5592.0,4647.0,21315.0,-6071.0,1.0
11456.0,-6596.0,6292.0,-3791.0,-13882.0,8082.0,1.0
8736.0,-17196.0,-18332.0,152.0,-4830.0,270.0,1.0
15300.0,-9268.0,-8192.0,7382.0,22611.0,-6131.0,1.0
11900.0,-4648.0,9580.0,-8615.0,-10722.0,5645.0,1.0
7188.0,-17840.0,-16944.0,-1543.0,-8844.0,-321.0,1.0
15944.0,-8128.0,-10856.0,6534.0,16949.0,-4376.0,1.0
12720.0,-4004.0,7188.0,-7071.0,-9434.0,6598.0,1.0
8212.0,-18044.0,-15736.0,-4734.0,-6988.0,-894.0,1.0
14296.0,-10816.0,-10628.0,-12097.0,20827.0,-10167.0,1.0
13260.0,-2796.0,5428.0,-2012.0,-10721.0,10151.0,0.0
11020.0,-15972.0,-12596.0,664.0,-809.0,-2133.0,0.0
12640.0,-6312.0,-6396.0,1721.0,1990.0,1483.0,0.0
11012.0,-10216.0,-1788.0,-1800.0,-5122.0,3329.0,0.0
12632.0,-15552.0,-16156.0,-2240.0,-3816.0,-3089.0,0.0
13492.0,-6004.0,-9960.0,8901.0,15146.0,-519.0,0.0
9868.0,-7092.0,7776.0,-2558.0,-4178.0,1506.0,0.0
10676.0,-14076.0,-13632.0,-2105.0,-8851.0,85.0,0.0
14556.0,-12132.0,-8148.0,4172.0,7960.0,-974.0,0.0
12400.0,-9356.0,-2048.0,-407.0,1682.0,-2745.0,0.0
13520.0,-9992.0,-7344.0,-1772.0,-3628.0,416.0,0.0
12364.0,-9876.0,-7784.0,396.0,2061.0,-702.0,0.0
12568.0,-9428.0,-5072.0,-150.0,2039.0,-160.0,0.0
12748.0,-9516.0,-5108.0,245.0,548.0,158.0,0.0
12900.0,-9828.0,-6156.0,-767.0,-611.0,648.0,0.0
12764.0,-10524.0,-6316.0,-312.0,19.0,717.0,0.0
13036.0,-10500.0,-6400.0,-210.0,1150.0,-345.0,0.0
13024.0,-9788.0,-6308.0,-79.0,1109.0,-103.0,0.0
12496.0,-9988.0,-5996.0,-247.0,1198.0,-22.0,0.0
12368.0,-9996.0,-4744.0,-154.0,833.0,421.0,0.0
12484.0,-10348.0,-4560.0,81.0,-7.0,31.0,0.0
13096.0,-9700.0,-4748.0,-462.0,-843.0,-46.0,0.0
13224.0,-9672.0,-5396.0,-1148.0,-1200.0,-365.0,0.0
13576.0,-9588.0,-6044.0,-1933.0,-1314.0,-499.0,0.0
13236.0,-9152.0,-6712.0,-1926.0,-881.0,571.0,0.0
12824.0,-10540.0,-7096.0,-1762.0,-202.0,588.0,0.0
12892.0,-9448.0,-6508.0,-2611.0,1234.0,-387.0,0.0
12680.0,-10620.0,-5948.0,-131.0,1576.0,1022.0,0.0
12668.0,-11064.0,-5756.0,-1117.0,2418.0,-1048.0,0.0
12496.0,-10300.0,-5600.0,29.0,2050.0,-791.0,0.0
12768.0,-9920.0,-5304.0,-564.0,1641.0,-1445.0,0.0
13304.0,-9516.0,-4772.0,-38.0,945.0,-1075.0,0.0
12988.0,-10308.0,-4652.0,-1081.0,-226.0,-2315.0,0.0
12996.0,-9444.0,-4996.0,-850.0,-1238.0,-2629.0,0.0
13604.0,-9616.0,-5328.0,-1036.0,-3111.0,-2944.0,0.0
13832.0,-7784.0,-6524.0,-3425.0,-3861.0,-3366.0,0.0
13572.0,-7928.0,-7864.0,-2823.0,-3966.0,-3020.0,0.0
13244.0,-7680.0,-7632.0,-3699.0,-2942.0,-3793.0,0.0
13396.0,-6592.0,-7776.0,-4258.0,-3120.0,-2808.0,0.0
13516.0,-6396.0,-8728.0,-4470.0,-3345.0,-2212.0,0.0
13836.0,-6308.0,-9768.0,-4138.0,-2126.0,-1783.0,0.0
13656.0,-6012.0,-10392.0,-3606.0,-1797.0,-723.0,0.0
13636.0,-5808.0,-10320.0,-2813.0,-765.0,-54.0,0.0
13768.0,-5900.0,-9608.0,-2047.0,-52.0,-689.0,0.0
13408.0,-5572.0,-10052.0,-1616.0,-344.0,-424.0,0.0
13596.0,-5372.0,-9768.0,-1008.0,-445.0,231.0,0.0
13700.0,-5656.0,-9892.0,-1018.0,-230.0,-691.0,0.0
13900.0,-5584.0,-10068.0,-712.0,-227.0,-312.0,0.0
13912.0,-5408.0,-9816.0,-657.0,-325.0,-317.0,0.0
13352.0,-5472.0,-10176.0,-621.0,-394.0,-374.0,0.0
13508.0,-4896.0,-10352.0,-1228.0,-401.0,-818.0,0.0
13728.0,-5336.0,-10128.0,-105.0,-196.0,446.0,0.0
13644.0,-5168.0,-9912.0,-462.0,-324.0,-99.0,0.0
13624.0,-5200.0,-10204.0,-248.0,-387.0,109.0,0.0
13652.0,-5156.0,-10360.0,-327.0,-596.0,96.0,0.0
13584.0,-5080.0,-10244.0,-103.0,-609.0,305.0,0.0
13508.0,-5016.0,-10348.0,-316.0,-417.0,110.0,0.0
13696.0,-5104.0,-10576.0,-414.0,-223.0,-57.0,0.0
13672.0,-5224.0,-10312.0,-598.0,-73.0,-82.0,0.0
13588.0,-5264.0,-10392.0,-404.0,-192.0,-97.0,0.0
13540.0,-5172.0,-10448.0,-377.0,-270.0,-153.0,0.0
13392.0,-4992.0,-10460.0,-143.0,-236.0,150.0,0.0
13304.0,-5280.0,-10380.0,-197.0,-242.0,74.0,0.0
13396.0,-4828.0,-10252.0,-304.0,-395.0,50.0,0.0
13316.0,-5120.0,-10780.0,-174.0,-271.0,129.0,0.0
13512.0,-5368.0,-10256.0,-261.0,-271.0,378.0,0.0
13232.0,-5316.0,-10452.0,-366.0,-728.0,163.0,0.0
13064.0,-4956.0,-11076.0,-194.0,-758.0,245.0,0.0
13304.0,-5276.0,-10688.0,-648.0,-490.0,449.0,0.0
13112.0,-5156.0,-10392.0,-360.0,-945.0,881.0,0.0
13336.0,-5116.0,-10720.0,-244.0,-1037.0,706.0,0.0
13292.0,-5612.0,-10824.0,-219.0,-836.0,779.0,0.0
13180.0,-5212.0,-10820.0,-135.0,-1591.0,758.0,0.0
13344.0,-5576.0,-10940.0,145.0,-1456.0,1294.0,0.0
13844.0,-6552.0,-11340.0,-375.0,-615.0,410.0,0.0
13780.0,-8096.0,-12040.0,-1544.0,-13.0,-790.0,0.0
13780.0,-7400.0,-11244.0,-175.0,4347.0,-3665.0,0.0
14232.0,-6808.0,-8748.0,-2984.0,4574.0,-5775.0,0.0
13372.0,-2768.0,-7220.0,-3158.0,3518.0,-6981.0,0.0
13076.0,-660.0,-6680.0,-3254.0,-2290.0,-4260.0,0.0
13504.0,-1744.0,-10736.0,-2744.0,-5462.0,-3952.0,0.0
14080.0,-1832.0,-12212.0,-3136.0,-3296.0,-878.0,0.0
13548.0,-1604.0,-12396.0,-1912.0,-1584.0,-2509.0,0.0
13928.0,-544.0,-12632.0,-3590.0,-1691.0,-1886.0,0.0
13588.0,-420.0,-13188.0,-4312.0,-1198.0,-933.0,0.0
13668.0,-808.0,-12992.0,-4490.0,149.0,-1504.0,0.0
13848.0,-120.0,-12236.0,-4725.0,1148.0,-898.0,0.0
13628.0,92.0,-11780.0,-3058.0,-80.0,874.0,0.0
13156.0,556.0,-12172.0,-4871.0,-465.0,304.0,0.0
12988.0,824.0,-11932.0,-3204.0,-1747.0,2245.0,0.0
13064.0,508.0,-12048.0,-2991.0,-1297.0,770.0,0.0
13516.0,224.0,-12476.0,-2340.0,-832.0,1334.0,0.0
13284.0,596.0,-12256.0,-1567.0,-381.0,1040.0,0.0
13068.0,288.0,-12204.0,-1373.0,-752.0,1614.0,0.0
13276.0,492.0,-12504.0,-1524.0,-585.0,795.0,0.0
13276.0,580.0,-12456.0,-1371.0,-343.0,1044.0,0.0
13220.0,236.0,-12432.0,-1280.0,-504.0,1267.0,0.0
13336.0,244.0,-12220.0,-738.0,-128.0,541.0,0.0
13432.0,196.0,-12192.0,-963.0,-185.0,78.0,0.0
13248.0,464.0,-12480.0,-511.0,44.0,280.0,0.0
13248.0,816.0,-12220.0,-804.0,166.0,122.0,0.0
13336.0,116.0,-12744.0,-352.0,-73.0,161.0,0.0
13216.0,552.0,-12068.0,91.0,-249.0,568.0,0.0
13072.0,300.0,-12380.0,-295.0,-167.0,24.0,0.0
12656.0,536.0,-12604.0,239.0,-297.0,344.0,0.0
12420.0,220.0,-12644.0,74.0,-511.0,22.0,0.0
13056.0,324.0,-11972.0,-116.0,-888.0,654.0,0.0
12900.0,-60.0,-12652.0,-233.0,-1924.0,221.0,0.0
13384.0,-180.0,-12640.0,249.0,-424.0,-187.0,0.0
13736.0,-8.0,-12680.0,1402.0,-345.0,613.0,0.0
12876.0,212.0,-12828.0,-650.0,-1007.0,-12.0,0.0
12556.0,160.0,-12456.0,257.0,-1039.0,507.0,0.0
13016.0,-188.0,-12892.0,91.0,-791.0,-49.0,0.0
12716.0,124.0,-12880.0,-131.0,-1092.0,311.0,0.0
12500.0,-252.0,-12780.0,325.0,-1151.0,1035.0,0.0
12556.0,-208.0,-12656.0,-490.0,-1315.0,685.0,0.0
12528.0,284.0,-12944.0,-328.0,-1972.0,1078.0,0.0
12824.0,-300.0,-13296.0,-527.0,-1863.0,1168.0,0.0
13232.0,-796.0,-13560.0,-824.0,-1421.0,1150.0,0.0
12280.0,-788.0,-13264.0,518.0,-1657.0,583.0,0.0
12084.0,-484.0,-14864.0,762.0,-558.0,-19.0,0.0
11532.0,-844.0,-14388.0,2622.0,1588.0,-207.0,0.0
12176.0,-1140.0,-13440.0,3390.0,1953.0,58.0,0.0
12948.0,-1456.0,-13228.0,3288.0,2224.0,-204.0,0.0
12372.0,-668.0,-14120.0,1062.0,3648.0,-786.0,0.0
12336.0,-940.0,-13388.0,4321.0,4391.0,1445.0,0.0
14052.0,-2928.0,-11920.0,3030.0,5990.0,1035.0,0.0
13780.0,-1492.0,-11336.0,1267.0,6191.0,1265.0,0.0
13844.0,-2984.0,-9900.0,1642.0,6611.0,2030.0,0.0
14216.0,-2984.0,-8940.0,650.0,4819.0,2689.0,0.0
14564.0,-3520.0,-9036.0,240.0,3822.0,2755.0,0.0
14828.0,-3564.0,-9068.0,-122.0,3857.0,1237.0,0.0
15284.0,-2896.0,-8660.0,-1200.0,3329.0,1994.0,0.0
15312.0,-4344.0,-8184.0,-1080.0,2673.0,657.0,0.0
14932.0,-4388.0,-8076.0,-258.0,1050.0,259.0,0.0
14556.0,-3924.0,-8296.0,-1666.0,471.0,-1329.0,0.0
14392.0,-2992.0,-8432.0,-2007.0,-339.0,-1014.0,0.0
14620.0,-2768.0,-8252.0,-3185.0,-1131.0,-400.0,0.0
14648.0,-3024.0,-8800.0,-4252.0,-2656.0,-61.0,0.0
15188.0,-3340.0,-9104.0,-3404.0,-2299.0,-772.0,0.0
15204.0,-3412.0,-9716.0,-732.0,-1246.0,339.0,0.0
15712.0,-3800.0,-9556.0,-2094.0,-1109.0,-327.0,0.0
14764.0,-2892.0,-9520.0,-648.0,-419.0,-977.0,0.0
14840.0,-2372.0,-9128.0,-1137.0,-749.0,-1550.0,0.0
15016.0,-1908.0,-10192.0,-758.0,-1324.0,-136.0,0.0
15412.0,-2504.0,-9956.0,-914.0,136.0,-387.0,0.0
14544.0,-1960.0,-9608.0,-570.0,-250.0,-419.0,0.0
14912.0,-2540.0,-10048.0,-381.0,-300.0,-427.0,0.0
14440.0,-2156.0,-9680.0,-892.0,-565.0,-832.0,0.0
14680.0,-2328.0,-9508.0,65.0,-1004.0,-482.0,0.0
14504.0,-2276.0,-9584.0,401.0,-1187.0,-503.0,0.0
14504.0,-2200.0,-9736.0,594.0,-1198.0,-818.0,0.0
14448.0,-2408.0,-10036.0,556.0,-1638.0,-726.0,0.0
14428.0,-1736.0,-10308.0,385.0,-2064.0,-842.0,0.0
14380.0,-1580.0,-10572.0,345.0,-2259.0,-696.0,0.0
14224.0,-1716.0,-10636.0,57.0,-2346.0,-261.0,0.0
14892.0,-2108.0,-11804.0,337.0,-1626.0,-516.0,0.0
14220.0,-1380.0,-11056.0,-123.0,-1449.0,-426.0,0.0
13940.0,-1424.0,-11548.0,-337.0,-2236.0,-142.0,0.0
13928.0,-1532.0,-12060.0,-386.0,-1453.0,168.0,0.0
13680.0,-1488.0,-11628.0,-556.0,-1066.0,134.0,0.0
13720.0,-1508.0,-11388.0,-732.0,-1192.0,-286.0,0.0
13672.0,-984.0,-11992.0,-545.0,-690.0,135.0,0.0
13440.0,-1552.0,-12004.0,-253.0,-403.0,535.0,0.0
13500.0,-1976.0,-11920.0,-45.0,-122.0,-542.0,0.0
13376.0,-1952.0,-13184.0,2145.0,692.0,-1391.0,0.0
13688.0,-2360.0,-13100.0,3290.0,3268.0,-2775.0,0.0
14272.0,-1676.0,-11868.0,3216.0,3660.0,-3389.0,0.0
14472.0,-1924.0,-10748.0,1943.0,4386.0,-3869.0,0.0
14520.0,-172.0,-9144.0,2359.0,2290.0,-3011.0,0.0
14788.0,-244.0,-9252.0,657.0,707.0,-3207.0,0.0
14800.0,-124.0,-9308.0,1674.0,-1779.0,1076.0,0.0
14332.0,-1108.0,-9848.0,-1121.0,-1454.0,511.0,0.0
14376.0,-1412.0,-10348.0,-563.0,-1147.0,1273.0,0.0
14624.0,-1860.0,-10588.0,-266.0,-256.0,384.0,0.0
14644.0,-1600.0,-10140.0,104.0,561.0,518.0,0.0
14820.0,-1488.0,-9884.0,-484.0,484.0,54.0,0.0
14860.0,-1548.0,-10024.0,177.0,-50.0,504.0,0.0
14816.0,-1344.0,-10296.0,108.0,575.0,-252.0,0.0
14464.0,-1176.0,-10264.0,26.0,211.0,192.0,0.0
14576.0,-1324.0,-10120.0,6.0,-18.0,292.0,0.0
14652.0,-1320.0,-10180.0,26.0,-83.0,547.0,0.0
14628.0,-1508.0,-10276.0,586.0,-723.0,1453.0,0.0
14528.0,-2240.0,-10404.0,1225.0,-115.0,1560.0,0.0
14572.0,-1980.0,-10220.0,1778.0,-116.0,1549.0,0.0
14936.0,-2280.0,-9960.0,3535.0,-886.0,3429.0,0.0
14700.0,-3588.0,-10644.0,1472.0,-785.0,1252.0,0.0
14476.0,-2672.0,-10400.0,881.0,-331.0,586.0,0.0
14372.0,-3312.0,-10820.0,1266.0,219.0,1433.0,0.0
14336.0,-2888.0,-10468.0,-869.0,1260.0,-557.0,0.0
14548.0,-2788.0,-9576.0,123.0,1397.0,471.0,0.0
14408.0,-3288.0,-8772.0,167.0,1296.0,268.0,0.0
15488.0,-3980.0,-8604.0,983.0,1170.0,442.0,0.0
16144.0,-4212.0,-7920.0,1430.0,-287.0,356.0,0.0
15820.0,-4468.0,-7880.0,1465.0,-1251.0,-1028.0,0.0
14204.0,-3364.0,-9772.0,-74.0,-1644.0,-1413.0,0.0
13064.0,-3280.0,-9976.0,-629.0,-2490.0,810.0,0.0
12928.0,-3532.0,-10372.0,-361.0,-3055.0,1619.0,0.0
13240.0,-4268.0,-11000.0,-907.0,-2274.0,1655.0,0.0
13796.0,-4784.0,-11872.0,544.0,-1370.0,1599.0,0.0
14400.0,-4768.0,-10892.0,-431.0,-28.0,344.0,0.0
13632.0,-3604.0,-11052.0,-720.0,-745.0,56.0,0.0
13340.0,-3648.0,-11656.0,-1012.0,-366.0,30.0,0.0
13228.0,-3764.0,-11208.0,-953.0,-143.0,248.0,0.0
13176.0,-3744.0,-10780.0,-421.0,-305.0,1085.0,0.0
13508.0,-4496.0,-10764.0,-395.0,-420.0,1189.0,0.0
13352.0,-4176.0,-10664.0,-1194.0,-811.0,953.0,0.0
13920.0,-4364.0,-10444.0,-1114.0,-1234.0,1109.0,0.0
13208.0,-3964.0,-10544.0,-1378.0,-1718.0,679.0,0.0
14080.0,-4568.0,-11348.0,-549.0,-1641.0,1030.0,0.0
13704.0,-4224.0,-11772.0,-1165.0,-1560.0,782.0,0.0
13664.0,-4644.0,-11832.0,-140.0,-975.0,868.0,0.0
13264.0,-4396.0,-12520.0,73.0,-592.0,-301.0,0.0
12628.0,-4328.0,-13064.0,1344.0,1348.0,-1158.0,0.0
12828.0,-5108.0,-11456.0,3262.0,2509.0,-629.0,0.0
12864.0,-4556.0,-10184.0,785.0,2227.0,-2140.0,0.0
13128.0,-3656.0,-10548.0,-412.0,918.0,-1351.0,0.0
13644.0,-3364.0,-10756.0,-3.0,383.0,63.0,0.0
13628.0,-3976.0,-10968.0,21.0,496.0,617.0,0.0
13596.0,-4744.0,-10172.0,790.0,254.0,1143.0,0.0
13796.0,-5044.0,-10004.0,517.0,-791.0,253.0,0.0
13740.0,-4424.0,-10248.0,1456.0,-1297.0,287.0,0.0
13596.0,-4708.0,-10652.0,1182.0,-1485.0,1285.0,0.0
12832.0,-5156.0,-10816.0,748.0,-1715.0,1387.0,0.0
13116.0,-4796.0,-10980.0,-17.0,-1915.0,841.0,0.0
13312.0,-5168.0,-10916.0,32.0,-2895.0,1188.0,0.0
12748.0,-5448.0,-11712.0,-157.0,-2783.0,517.0,0.0
12900.0,-5620.0,-11720.0,1663.0,-927.0,1771.0,0.0
12600.0,-6552.0,-11260.0,1739.0,-870.0,784.0,0.0
12644.0,-6100.0,-11096.0,898.0,-1685.0,-617.0,0.0
12184.0,-5424.0,-11732.0,80.0,-2476.0,-1029.0,0.0
12264.0,-5200.0,-12356.0,428.0,-2100.0,61.0,0.0
11940.0,-5380.0,-12404.0,-145.0,303.0,-72.0,0.0
12624.0,-5532.0,-11464.0,1754.0,2021.0,146.0,0.0
12920.0,-7292.0,-10696.0,1435.0,2184.0,-1023.0,0.0
12968.0,-6056.0,-10436.0,590.0,1593.0,-2048.0,0.0
13556.0,-5924.0,-10312.0,639.0,1023.0,-1633.0,0.0
13056.0,-4896.0,-11124.0,14.0,1125.0,-360.0,0.0
12504.0,-5600.0,-11148.0,43.0,1865.0,1350.0,0.0
12540.0,-5360.0,-10228.0,544.0,549.0,1515.0,0.0
12392.0,-5848.0,-10120.0,-112.0,-958.0,1793.0,1.0
12140.0,-7076.0,-10828.0,301.0,-2044.0,1330.0,1.0
12120.0,-6644.0,-12032.0,904.0,-959.0,599.0,1.0
13112.0,-6928.0,-11412.0,75.0,-259.0,298.0,1.0
11604.0,-6168.0,-10884.0,-756.0,-1026.0,722.0,1.0
11824.0,-5636.0,-11080.0,-1143.0,-1725.0,809.0,1.0
11660.0,-6756.0,-11392.0,-810.0,-1772.0,976.0,1.0
11764.0,-6940.0,-11288.0,-597.0,-2116.0,1327.0,1.0
11772.0,-7008.0,-11392.0,-1019.0,-3407.0,1691.0,1.0
10904.0,-6964.0,-12516.0,-2154.0,-9089.0,3712.0,1.0
6172.0,-8108.0,-22872.0,25.0,-1891.0,-3910.0,1.0
9700.0,-8696.0,-20392.0,9490.0,32767.0,-18716.0,1.0
19888.0,4564.0,14356.0,23296.0,3885.0,18605.0,1.0
4064.0,-2616.0,-4812.0,-14860.0,-32768.0,19640.0,1.0
17112.0,-12740.0,-23752.0,3717.0,17753.0,-4322.0,1.0
12824.0,-10328.0,7104.0,610.0,208.0,5023.0,1.0
10736.0,-6720.0,-14828.0,-1360.0,4703.0,-16599.0,1.0
18368.0,-3048.0,-9528.0,8994.0,-85.0,8078.0,1.0
1376.0,-11708.0,-6984.0,-5360.0,-10685.0,5002.0,1.0
16352.0,-7460.0,-11796.0,3120.0,6463.0,-3387.0,1.0
12864.0,-6248.0,-3156.0,1042.0,-14910.0,12709.0,1.0
11812.0,-11044.0,-17932.0,-3655.0,12955.0,-10436.0,1.0
15708.0,-7600.0,2020.0,4064.0,-1186.0,1121.0,1.0
5204.0,-14228.0,-13528.0,-6253.0,-1349.0,-10680.0,1.0
12648.0,-3712.0,-13992.0,656.0,24594.0,-17446.0,1.0
10256.0,-748.0,5376.0,-5043.0,-21189.0,15943.0,1.0
7052.0,-19568.0,-25452.0,-4591.0,492.0,-11446.0,1.0
18840.0,-2540.0,-7956.0,9144.0,4684.0,5148.0,1.0
5524.0,-8820.0,-5416.0,-3910.0,-9366.0,1429.0,1.0
15380.0,-4812.0,-17488.0,6317.0,2316.0,1534.0,1.0
13928.0,-2164.0,-1656.0,4961.0,-8796.0,14285.0,1.0
5900.0,-24028.0,-14196.0,-11505.0,-3656.0,-635.0,1.0
9204.0,-8016.0,-15120.0,2013.0,18503.0,-8738.0,1.0
8736.0,-4696.0,2488.0,-9409.0,-5100.0,-3090.0,1.0
6792.0,-10824.0,-19656.0,7214.0,-12011.0,-215.0,1.0
13232.0,-4988.0,-17096.0,-3034.0,23204.0,-18330.0,1.0
13912.0,-6568.0,7752.0,6835.0,-18140.0,18405.0,1.0
5356.0,-9900.0,-24900.0,1798.0,-1867.0,-5165.0,1.0
17792.0,-9132.0,-8804.0,7236.0,15553.0,245.0,1.0
12824.0,3656.0,6456.0,-671.0,-17596.0,21823.0,1.0
5812.0,-15444.0,-21604.0,2394.0,3357.0,-10912.0,1.0
13016.0,-3244.0,-3892.0,8345.0,10395.0,-2316.0,1.0
7380.0,-14288.0,-8728.0,-16938.0,-1828.0,-4677.0,1.0
17212.0,-9688.0,-8248.0,15847.0,-3489.0,3129.0,1.0
5028.0,-5776.0,-11576.0,-7566.0,4039.0,-5320.0,1.0
15232.0,-13188.0,-4400.0,-3740.0,2645.0,-1692.0,1.0
5044.0,-13444.0,-13672.0,-3111.0,-11461.0,4214.0,1.0
18004.0,-9880.0,-9036.0,-2942.0,13783.0,-5247.0,1.0
9624.0,-9500.0,-1820.0,1299.0,-15380.0,7882.0,1.0
10344.0,-10124.0,-17768.0,591.0,13181.0,-7716.0,1.0
12688.0,-7396.0,-2752.0,-7226.0,-3056.0,7090.0,1.0
7844.0,-13552.0,-14656.0,1267.0,5307.0,-6939.0,1.0
14848.0,-4080.0,-2492.0,2873.0,-4296.0,4687.0,1.0
5980.0,-18508.0,-18584.0,-5183.0,-8561.0,388.0,1.0
16236.0,-2988.0,-7892.0,6196.0,8166.0,-724.0,1.0
7312.0,-11116.0,-9412.0,-4856.0,-3802.0,-1280.0,1.0
11784.0,-10256.0,-12424.0,-903.0,8515.0,-3883.0,1.0
9908.0,-9092.0,-6016.0,-1423.0,-2351.0,-1451.0,1.0
10580.0,-6832.0,-14088.0,-1083.0,7771.0,-7121.0,1.0
12120.0,-10056.0,-6028.0,245.0,-8362.0,6933.0,1.0
8492.0,-20352.0,-19180.0,-1727.0,6885.0,-4554.0,1.0
16716.0,-7284.0,-1484.0,-1078.0,12435.0,-3591.0,1.0
9844.0,-2524.0,-4324.0,-2309.0,-19275.0,10503.0,1.0
11576.0,-15192.0,-18784.0,-723.0,7912.0,-3379.0,1.0
13904.0,-6016.0,668.0,4201.0,-283.0,3687.0,1.0
5844.0,-12844.0,-14360.0,-1659.0,-7552.0,426.0,1.0
10316.0,-6252.0,-16040.0,1276.0,27574.0,-15786.0,1.0
12276.0,-6424.0,7236.0,842.0,-24301.0,15187.0,1.0
3084.0,-19420.0,-23612.0,-2883.0,-10718.0,-1863.0,0.0
16160.0,-4752.0,-14848.0,2375.0,18184.0,-3878.0,0.0
10208.0,-9232.0,8508.0,-5918.0,-8634.0,4899.0,0.0
11868.0,-8380.0,-18200.0,2743.0,-8550.0,1610.0,0.0
11940.0,-11076.0,-11824.0,879.0,13022.0,-3523.0,0.0
11692.0,-7396.0,-64.0,-1129.0,273.0,-1481.0,0.0
12064.0,-7684.0,-12400.0,-1549.0,-5930.0,-550.0,0.0
12100.0,-8864.0,-13316.0,-170.0,5238.0,-585.0,0.0
13080.0,-8600.0,-6248.0,-1745.0,3813.0,-1076.0,0.0
12628.0,-9488.0,-8092.0,-2402.0,-1587.0,530.0,0.0
11752.0,-8264.0,-10468.0,-1184.0,1397.0,1024.0,0.0
12064.0,-7544.0,-8464.0,-1425.0,2689.0,1104.0,0.0
12132.0,-9328.0,-7964.0,187.0,782.0,2788.0,0.0
12184.0,-9424.0,-8996.0,-1990.0,484.0,-428.0,0.0
12052.0,-8916.0,-8964.0,-2031.0,352.0,1529.0,0.0
12484.0,-9884.0,-8760.0,-3419.0,1466.0,-305.0,0.0
12476.0,-9124.0,-8112.0,-2643.0,567.0,-337.0,0.0
12684.0,-9556.0,-9116.0,-2418.0,-1064.0,-1066.0,0.0
12996.0,-8624.0,-10180.0,-2250.0,-387.0,-2571.0,0.0
12628.0,-7800.0,-10600.0,-1881.0,1408.0,-1903.0,0.0
12812.0,-6952.0,-9320.0,94.0,2769.0,-562.0,0.0
12276.0,-8520.0,-9000.0,-764.0,997.0,-578.0,0.0
12180.0,-7680.0,-9400.0,-1922.0,542.0,-1515.0,0.0
13128.0,-7520.0,-8720.0,-2552.0,-380.0,-53.0,0.0
12772.0,-7256.0,-9328.0,-2937.0,-1139.0,-816.0,0.0
13228.0,-6996.0,-9752.0,-3246.0,-855.0,-636.0,0.0
12496.0,-6908.0,-10516.0,-2843.0,-599.0,-862.0,0.0
12688.0,-6344.0,-10240.0,-2301.0,-554.0,-314.0,0.0
13044.0,-6964.0,-10732.0,-1668.0,740.0,-749.0,0.0
12680.0,-6728.0,-10304.0,-1640.0,-164.0,-239.0,0.0
12096.0,-5760.0,-10508.0,-1070.0,-1315.0,-715.0,0.0
11676.0,-5072.0,-11360.0,41.0,-1357.0,-28.0,0.0
12996.0,-6752.0,-11120.0,4.0,-1234.0,882.0,0.0
13056.0,-6340.0,-10780.0,-390.0,-1126.0,770.0,0.0
12860.0,-5968.0,-10468.0,-565.0,-1730.0,823.0,0.0
12832.0,-5988.0,-11004.0,-864.0,-1641.0,615.0,0.0
12744.0,-6452.0,-11040.0,-676.0,-978.0,862.0,0.0
11988.0,-6100.0,-10776.0,-394.0,-1022.0,653.0,0.0
12168.0,-6372.0,-11156.0,-288.0,-1661.0,870.0,0.0
12392.0,-6972.0,-11132.0,-507.0,-1776.0,227.0,0.0
12600.0,-6596.0,-11880.0,19.0,-732.0,44.0,0.0
12524.0,-7112.0,-11500.0,-32.0,-333.0,432.0,0.0
12112.0,-7152.0,-11688.0,-297.0,-574.0,133.0,0.0
12288.0,-6668.0,-12444.0,-440.0,-512.0,-66.0,0.0
12364.0,-7960.0,-12504.0,444.0,1114.0,-2056.0,0.0
13064.0,-9008.0,-11044.0,1341.0,3704.0,-4406.0,0.0
12592.0,-8600.0,-7352.0,1244.0,3653.0,-6671.0,0.0
13016.0,-5672.0,-7008.0,-1664.0,-2977.0,-9724.0,0.0
12528.0,-1404.0,-10448.0,-5690.0,-5058.0,-8124.0,0.0
12848.0,-512.0,-13196.0,-5893.0,-5591.0,-4651.0,0.0
12704.0,-1048.0,-14596.0,-4696.0,-4125.0,-2094.0,0.0
12068.0,-1480.0,-14716.0,-226.0,-69.0,122.0,0.0
12356.0,-2976.0,-13116.0,301.0,-236.0,70.0,0.0
12044.0,-2036.0,-13304.0,1396.0,-340.0,-3.0,1.0
12508.0,-2444.0,-13140.0,3481.0,639.0,1110.0,1.0
12896.0,-1148.0,-13372.0,6946.0,-690.0,4968.0,1.0
12588.0,-3260.0,-12504.0,15747.0,-8238.0,14838.0,1.0
5572.0,-12052.0,-16920.0,8721.0,3274.0,-6100.0,1.0
15912.0,-1852.0,-2804.0,-4595.0,20204.0,-19421.0,1.0
14320.0,-1868.0,-10060.0,2162.0,-13382.0,5121.0,1.0
11632.0,-2376.0,-17932.0,1629.0,10189.0,-4736.0,1.0
14808.0,-2844.0,-3164.0,21223.0,-6252.0,23742.0,1.0
4524.0,-26620.0,-17576.0,-873.0,-4615.0,-4821.0,1.0
18040.0,5672.0,-7784.0,18219.0,-2796.0,8750.0,1.0
11664.0,-17864.0,-5012.0,-9296.0,1577.0,-2985.0,1.0
9348.0,-12636.0,-16564.0,1761.0,8445.0,-8661.0,1.0
15100.0,-4340.0,144.0,7057.0,-70.0,6544.0,1.0
1744.0,-8444.0,-7608.0,5416.0,-31839.0,20457.0,1.0
14224.0,-8232.0,-25276.0,-906.0,13134.0,-9960.0,1.0
13312.0,-11452.0,3300.0,4405.0,1984.0,5014.0,1.0
7712.0,-11244.0,-10084.0,3056.0,-4054.0,-4620.0,1.0
14552.0,-6792.0,-13660.0,2167.0,2442.0,1011.0,1.0
13188.0,-7024.0,-2688.0,3374.0,-12036.0,13806.0,1.0
9344.0,-11048.0,-16648.0,-3205.0,10496.0,-13468.0,1.0
14836.0,-7912.0,-1364.0,3802.0,4809.0,-689.0,1.0
7396.0,-6708.0,-4884.0,-2649.0,-19779.0,9644.0,1.0
12128.0,-11660.0,-19092.0,-97.0,8920.0,-6774.0,1.0
10576.0,-14452.0,-5588.0,2435.0,-1020.0,5494.0,1.0
9976.0,-8000.0,-7988.0,4332.0,-5183.0,4233.0,1.0
10260.0,-8728.0,-12512.0,-1642.0,-1880.0,6076.0,1.0
8040.0,-10148.0,-10316.0,-563.0,-7161.0,12558.0,1.0
4912.0,-18172.0,-11404.0,-1226.0,5831.0,-5326.0,1.0
12920.0,-8636.0,-8552.0,4363.0,9653.0,-8521.0,1.0
9752.0,-8328.0,-8336.0,-8231.0,-3528.0,-833.0,1.0
11216.0,-15684.0,-14884.0,-1026.0,11123.0,-11495.0,1.0
13412.0,-1060.0,872.0,12675.0,-10590.0,10721.0,1.0
1392.0,-18476.0,-14172.0,-12370.0,-12575.0,7450.0,1.0
10848.0,-14252.0,-16040.0,12197.0,9885.0,-3935.0,1.0
9728.0,-6824.0,-1420.0,-4184.0,-6057.0,4821.0,1.0
5952.0,-22332.0,-18628.0,-7288.0,6618.0,-8461.0,1.0
15084.0,-9144.0,-5888.0,2297.0,4108.0,1564.0,1.0
7144.0,-10236.0,-6708.0,-9405.0,-16908.0,15454.0,1.0
10904.0,-10568.0,-18588.0,1488.0,14819.0,-9437.0,1.0
8920.0,-8660.0,-636.0,-2700.0,6655.0,711.0,1.0
6744.0,-12104.0,-12876.0,-5545.0,-11703.0,-109.0,1.0
11360.0,-11424.0,-20300.0,2362.0,10866.0,-383.0,1.0
10132.0,-10184.0,-20.0,-873.0,-2140.0,668.0,1.0
10252.0,-10908.0,-13960.0,1136.0,-3024.0,-827.0,0.0
9520.0,-11544.0,-12232.0,4588.0,8183.0,-2891.0,0.0
12280.0,-8040.0,-5276.0,-4564.0,-32.0,-548.0,0.0
10172.0,-8972.0,-10612.0,-1704.0,-1024.0,-1228.0,0.0
11176.0,-9756.0,-12252.0,-320.0,3805.0,-526.0,0.0
12752.0,-9380.0,-8636.0,-160.0,4688.0,-1215.0,0.0
12552.0,-8704.0,-8640.0,1883.0,2689.0,496.0,0.0
12100.0,-8928.0,-9120.0,-1699.0,4639.0,-1047.0,0.0
11780.0,-9016.0,-7316.0,1573.0,2554.0,1336.0,0.0
11872.0,-8452.0,-6916.0,-2009.0,-805.0,26.0,0.0
11624.0,-8724.0,-9400.0,-1080.0,-1849.0,1094.0,0.0
12124.0,-9264.0,-9448.0,-1389.0,419.0,418.0,0.0
12136.0,-9244.0,-8092.0,-806.0,676.0,573.0,0.0
12732.0,-9492.0,-7936.0,-1265.0,-1021.0,664.0,0.0
12028.0,-9992.0,-9276.0,-1619.0,-733.0,-354.0,0.0
12204.0,-9584.0,-9284.0,263.0,446.0,-132.0,0.0
12092.0,-8300.0,-8704.0,-668.0,895.0,-932.0,0.0
12068.0,-8692.0,-8696.0,450.0,84.0,174.0,0.0
11872.0,-9000.0,-8728.0,-111.0,-70.0,357.0,0.0
11596.0,-9596.0,-8664.0,179.0,433.0,-292.0,0.0
12548.0,-8612.0,-7928.0,117.0,-486.0,326.0,0.0
11864.0,-9812.0,-8904.0,-1634.0,-1775.0,402.0,0.0
11596.0,-9476.0,-9184.0,-553.0,-1618.0,261.0,0.0
11908.0,-9572.0,-9532.0,-428.0,-950.0,73.0,0.0
11868.0,-8888.0,-9424.0,-494.0,-793.0,626.0,0.0
11492.0,-9528.0,-9616.0,-261.0,-659.0,412.0,0.0
11408.0,-8744.0,-9344.0,-571.0,-769.0,865.0,0.0
11068.0,-9232.0,-9840.0,-537.0,-1314.0,1026.0,0.0
10772.0,-9080.0,-10436.0,-614.0,-790.0,821.0,0.0
11296.0,-9580.0,-9912.0,-338.0,42.0,1387.0,0.0
11984.0,-10576.0,-9436.0,657.0,538.0,1237.0,0.0
11508.0,-9720.0,-9104.0,-132.0,729.0,-191.0,0.0
11104.0,-9192.0,-9576.0,-884.0,-53.0,318.0,0.0
11212.0,-9192.0,-9424.0,-218.0,482.0,923.0,0.0
11612.0,-10400.0,-8924.0,140.0,667.0,782.0,0.0
11472.0,-10208.0,-8688.0,595.0,562.0,-15.0,0.0
12028.0,-9708.0,-8536.0,200.0,616.0,-128.0,0.0
11320.0,-10236.0,-9580.0,-530.0,-421.0,-128.0,0.0
11072.0,-9760.0,-10004.0,-1271.0,310.0,-958.0,0.0
11204.0,-9448.0,-9820.0,442.0,1058.0,-48.0,0.0
11792.0,-9000.0,-9356.0,-33.0,1690.0,-51.0,0.0
12996.0,-9700.0,-8252.0,77.0,2967.0,-530.0,0.0
12632.0,-10556.0,-8096.0,-969.0,519.0,-624.0,0.0
12132.0,-9192.0,-8160.0,-1094.0,1647.0,-1360.0,0.0
13260.0,-9364.0,-7708.0,-1089.0,3413.0,-1996.0,0.0
14404.0,-9344.0,-6968.0,-638.0,3311.0,-2527.0,0.0
14408.0,-9644.0,-6796.0,-349.0,2846.0,-3044.0,0.0
13412.0,-8248.0,-6764.0,-574.0,1230.0,-2520.0,0.0
12052.0,-6744.0,-6892.0,-271.0,-580.0,-1035.0,0.0
12212.0,-8064.0,-7468.0,-165.0,-1472.0,-48.0,0.0
11752.0,-7904.0,-8516.0,-2194.0,-2205.0,-457.0,0.0
12028.0,-7884.0,-9656.0,-1389.0,-1778.0,283.0,0.0
12688.0,-8404.0,-9348.0,-1855.0,-1177.0,880.0,0.0
12624.0,-8876.0,-8992.0,-1304.0,-795.0,450.0,0.0
12392.0,-8380.0,-9172.0,-3424.0,-1059.0,-88.0,0.0
12852.0,-7348.0,-9240.0,-2117.0,-607.0,211.0,0.0
12536.0,-7884.0,-9212.0,-3319.0,-269.0,344.0,0.0
11800.0,-7840.0,-10044.0,-2370.0,-1089.0,1053.0,0.0
12080.0,-7736.0,-10080.0,-4612.0,-995.0,47.0,0.0
11760.0,-6936.0,-10336.0,-3627.0,-1443.0,1490.0,0.0
11900.0,-7948.0,-12332.0,-197.0,-289.0,180.0,0.0
12628.0,-8132.0,-11052.0,-2988.0,530.0,-994.0,0.0
12276.0,-6520.0,-10828.0,-2133.0,-46.0,-368.0,0.0
11852.0,-6344.0,-11248.0,-856.0,-844.0,60.0,0.0
11792.0,-6484.0,-11392.0,-443.0,-365.0,644.0,0.0
11932.0,-6536.0,-10588.0,-554.0,-896.0,1235.0,0.0
11932.0,-6528.0,-10392.0,-1492.0,-1161.0,1333.0,0.0
11996.0,-7324.0,-11188.0,-574.0,-1439.0,1315.0,0.0
11964.0,-7256.0,-11196.0,-735.0,-1412.0,1290.0,0.0
11488.0,-7200.0,-10964.0,-1032.0,-1301.0,1111.0,0.0
11580.0,-7176.0,-11576.0,-272.0,-1346.0,1167.0,0.0
11896.0,-7860.0,-11812.0,-157.0,-475.0,845.0,0.0
11680.0,-7364.0,-11376.0,-171.0,-362.0,852.0,0.0
11320.0,-7544.0,-11672.0,75.0,-512.0,650.0,0.0
11452.0,-7868.0,-11652.0,-3.0,-633.0,649.0,0.0
11452.0,-7664.0,-11500.0,-156.0,-312.0,527.0,0.0
11452.0,-8088.0,-11668.0,-143.0,-202.0,562.0,0.0
11268.0,-8368.0,-11836.0,101.0,-589.0,685.0,0.0
10916.0,-8500.0,-12152.0,-996.0,-443.0,-296.0,0.0
11212.0,-9236.0,-13220.0,149.0,1089.0,-1547.0,0.0
11872.0,-9300.0,-12044.0,2345.0,4179.0,-2661.0,0.0
12404.0,-8564.0,-9756.0,3420.0,5839.0,-4511.0,0.0
12972.0,-7076.0,-8412.0,2635.0,3320.0,-5076.0,0.0
12816.0,-5972.0,-8156.0,2368.0,759.0,-4133.0,0.0
12880.0,-5296.0,-8416.0,1568.0,254.0,-2209.0,0.0
12612.0,-5672.0,-9308.0,479.0,-1476.0,-816.0,0.0
12568.0,-6204.0,-9840.0,-193.0,-2671.0,58.0,0.0
12408.0,-6668.0,-10396.0,122.0,-2159.0,270.0,0.0
12580.0,-6896.0,-11000.0,-1223.0,-2840.0,466.0,0.0
12460.0,-7108.0,-11468.0,-1920.0,-2544.0,1223.0,0.0
12096.0,-6424.0,-11512.0,-2438.0,-1751.0,1786.0,0.0
12148.0,-6496.0,-11444.0,-2391.0,-564.0,2264.0,0.0
12068.0,-6928.0,-11320.0,-2070.0,-299.0,2434.0,0.0
11572.0,-7620.0,-11532.0,-955.0,-386.0,1805.0,0.0
11696.0,-6956.0,-11412.0,-1777.0,161.0,795.0,0.0
11380.0,-7096.0,-11752.0,-1356.0,-399.0,482.0,0.0
11352.0,-7384.0,-12172.0,-848.0,161.0,-139.0,0.0
11604.0,-6776.0,-11788.0,-1697.0,512.0,-406.0,0.0
11604.0,-6672.0,-11452.0,-511.0,-341.0,56.0,0.0
11616.0,-6792.0,-11804.0,-437.0,-314.0,112.0,0.0
11636.0,-6744.0,-11664.0,-129.0,-525.0,75.0,0.0
11612.0,-6692.0,-11856.0,-446.0,-548.0,109.0,0.0
11040.0,-6704.0,-11936.0,-351.0,-1220.0,421.0,1.0
10196.0,-7532.0,-13576.0,-1152.0,-3894.0,1678.0,1.0
8804.0,-7940.0,-20352.0,5882.0,-4098.0,559.0,1.0
11280.0,-10128.0,-13572.0,23726.0,31950.0,-15045.0,1.0
22300.0,-1008.0,10212.0,9163.0,-19978.0,10862.0,1.0
420.0,-19116.0,-23040.0,-1196.0,-10970.0,-3578.0,1.0
16900.0,-6904.0,-6816.0,18309.0,12632.0,-2183.0,1.0
10580.0,-10544.0,-900.0,-6516.0,-8394.0,3094.0,1.0
12792.0,-9368.0,-16048.0,-126.0,13850.0,-13918.0,1.0
19140.0,-3504.0,1780.0,9269.0,-12347.0,11710.0,1.0
-1832.0,-28452.0,-19244.0,-6568.0,-15060.0,3696.0,1.0
19564.0,-4960.0,-6880.0,7804.0,17727.0,-7261.0,1.0
10500.0,-5808.0,-2760.0,-4067.0,-10042.0,11372.0,1.0
8932.0,-15248.0,-16036.0,2371.0,4755.0,-6570.0,1.0
17388.0,-7884.0,3516.0,3350.0,3151.0,-1016.0,1.0
8164.0,-10980.0,-10356.0,331.0,-4558.0,-3758.0,1.0
14712.0,-14340.0,-16144.0,8180.0,-2557.0,7749.0,1.0
12812.0,-7724.0,-3348.0,3573.0,2020.0,6416.0,1.0
10008.0,-12388.0,-4944.0,-4714.0,1027.0,-6519.0,1.0
13704.0,-2912.0,-10292.0,1060.0,-12196.0,4110.0,1.0
1788.0,-20188.0,-19320.0,-4392.0,8231.0,-10775.0,1.0
18252.0,-4852.0,1896.0,7098.0,3470.0,-2758.0,1.0
7444.0,-12616.0,-10204.0,-8990.0,-18764.0,11503.0,1.0
16588.0,-11064.0,-11176.0,10440.0,4072.0,1437.0,1.0
12616.0,-4892.0,-5888.0,-3877.0,-6234.0,4675.0,1.0
8256.0,-11644.0,-14872.0,1109.0,7683.0,-4694.0,1.0
15332.0,-8892.0,-4616.0,-315.0,7480.0,-5024.0,1.0
9784.0,-7192.0,-7016.0,1798.0,-8256.0,5826.0,1.0
11836.0,-10404.0,-11760.0,2393.0,1866.0,-5399.0,1.0
12396.0,-7668.0,-9868.0,-1201.0,8750.0,-5226.0,1.0
15484.0,-6284.0,-1380.0,1950.0,-1508.0,953.0,1.0
11308.0,-6860.0,-7348.0,-1264.0,-14523.0,12606.0,1.0
11680.0,-11524.0,-15176.0,510.0,10111.0,-6468.0,1.0
13744.0,-5500.0,-4332.0,3418.0,-8100.0,4760.0,1.0
10112.0,-8720.0,-10352.0,-5670.0,3652.0,-6097.0,1.0
16060.0,-10960.0,-7340.0,5834.0,-1051.0,4746.0,1.0
7780.0,-6636.0,-11600.0,-2550.0,8706.0,-4923.0,1.0
17128.0,-8288.0,-1736.0,-150.0,17873.0,-5022.0,1.0
12440.0,1092.0,-16.0,-115.0,-22364.0,12766.0,1.0
8668.0,-18744.0,-19776.0,-6737.0,3089.0,-8715.0,1.0
18368.0,-7840.0,-6900.0,3836.0,6514.0,-2502.0,1.0
8588.0,-4932.0,2196.0,-3219.0,-2867.0,175.0,1.0
11680.0,-12576.0,-15504.0,2734.0,-3122.0,-1777.0,1.0
15420.0,-6720.0,-9476.0,-163.0,4961.0,-1123.0,1.0
14176.0,-8088.0,-1012.0,2436.0,-7016.0,9520.0,1.0
-5704.0,-31540.0,-16744.0,8197.0,-32768.0,27510.0,1.0
12544.0,-9804.0,-16768.0,7335.0,12906.0,-8767.0,1.0
12336.0,-2840.0,-1020.0,-6490.0,599.0,1293.0,1.0
8768.0,-9264.0,-6220.0,1572.0,-2730.0,-2321.0,1.0
10892.0,-6316.0,-10724.0,696.0,4313.0,-8411.0,1.0
11236.0,-12992.0,-11892.0,2328.0,-2555.0,2585.0,1.0
14132.0,-7400.0,-5148.0,2652.0,-6004.0,2435.0,1.0
8252.0,-9184.0,-11336.0,-11953.0,543.0,817.0,1.0
8992.0,-14828.0,-14776.0,3533.0,8735.0,-3502.0,1.0
12744.0,-804.0,412.0,-15668.0,-8420.0,4041.0,1.0
1636.0,-20436.0,-19616.0,6721.0,-12400.0,669.0,1.0
13264.0,-6456.0,-11192.0,1259.0,16510.0,-6738.0,1.0
10388.0,-8456.0,-4504.0,930.0,-5332.0,8320.0,1.0
7388.0,-11076.0,-10436.0,-2007.0,-3845.0,1453.0,1.0
10744.0,-11204.0,-12192.0,3258.0,11339.0,-8340.0,1.0
12296.0,-3056.0,-5392.0,-295.0,-6123.0,5788.0,1.0
8652.0,-17968.0,-11372.0,-5775.0,-3119.0,3221.0,1.0
9644.0,-10856.0,-13924.0,3759.0,251.0,1522.0,1.0
13564.0,-6896.0,-3484.0,-2619.0,10470.0,-7715.0,1.0
9892.0,-8392.0,-4008.0,3441.0,-14911.0,9523.0,1.0
7364.0,-13716.0,-18380.0,-2014.0,8582.0,-7842.0,1.0
15696.0,-10136.0,-7220.0,2059.0,11499.0,-6020.0,1.0
8384.0,-6204.0,-1556.0,-195.0,-15244.0,10517.0,1.0
6604.0,-15544.0,-20000.0,-4006.0,11871.0,-10395.0,1.0
15824.0,-9948.0,-5980.0,3274.0,6058.0,-2679.0,1.0
10692.0,-5460.0,20.0,288.0,-17305.0,12732.0,1.0
9696.0,-8380.0,-17060.0,3885.0,12062.0,-11813.0,1.0
8720.0,-11136.0,-8572.0,2147.0,-2666.0,6298.0,1.0
11236.0,-11068.0,-2632.0,-2660.0,-19785.0,13879.0,1.0
2140.0,-17600.0,-21848.0,-6401.0,2392.0,-2828.0,1.0
11796.0,-17168.0,-11672.0,9299.0,15823.0,-8060.0,1.0
11932.0,-1748.0,3408.0,-4416.0,-1825.0,-824.0,1.0
4212.0,-14672.0,-10540.0,-1460.0,-16507.0,4798.0,1.0
11132.0,-10176.0,-24424.0,5679.0,18902.0,-12234.0,1.0
12080.0,-7096.0,-2252.0,1367.0,-6790.0,8685.0,1.0
5720.0,-10688.0,-4240.0,-2424.0,-17578.0,11030.0,1.0
7412.0,-11820.0,-21576.0,3539.0,16304.0,-10353.0,1.0
13392.0,-4076.0,-3632.0,-225.0,-4251.0,4532.0,1.0
6568.0,-12276.0,-4696.0,-2949.0,-17676.0,9836.0,1.0
9924.0,-9804.0,-17804.0,3098.0,17703.0,-11419.0,1.0
14248.0,-8776.0,-4584.0,1282.0,6290.0,-5602.0,1.0
7812.0,-6916.0,-972.0,-6896.0,-21487.0,14042.0,1.0
5300.0,-18972.0,-21624.0,1767.0,14197.0,-10957.0,1.0
13576.0,-4164.0,-7876.0,5588.0,4056.0,-840.0,1.0
7972.0,-9236.0,-1064.0,-5023.0,-15437.0,12780.0,1.0
5556.0,-14840.0,-14576.0,5147.0,12321.0,-13191.0,1.0
13016.0,-6928.0,-9084.0,1510.0,4098.0,-2685.0,1.0
10524.0,-6776.0,-1388.0,-6884.0,-21743.0,18478.0,1.0
7876.0,-17256.0,-18932.0,2992.0,12735.0,-11246.0,1.0
11884.0,-3436.0,-5176.0,1059.0,5823.0,-4630.0,1.0
9636.0,-9304.0,-1276.0,-3272.0,-22907.0,18473.0,1.0
2368.0,-16224.0,-20944.0,1839.0,8457.0,-7593.0,1.0
14820.0,-12516.0,-13280.0,5203.0,16396.0,-10979.0,1.0
9600.0,-6516.0,3716.0,-4933.0,-13133.0,9944.0,1.0
4768.0,-11972.0,-15100.0,6039.0,-3175.0,-4789.0,1.0
13640.0,-12288.0,-14928.0,-890.0,13324.0,-8139.0,1.0
9164.0,-9112.0,-1712.0,-1555.0,-11854.0,9705.0,1.0
4276.0,-13772.0,-13000.0,-5819.0,2752.0,-2492.0,1.0
10756.0,-16920.0,-16124.0,2859.0,15693.0,-7326.0,1.0
11032.0,-2344.0,-620.0,-140.0,-3520.0,1176.0,1.0
7708.0,-13816.0,-7480.0,-3435.0,-2014.0,2333.0,1.0
11140.0,-12048.0,-14304.0,-5951.0,10236.0,-9555.0,1.0
8340.0,-12508.0,-8336.0,344.0,-12982.0,7127.0,1.0
6936.0,-9948.0,-16408.0,-10128.0,-3815.0,5343.0,1.0
9300.0,-17596.0,-11304.0,12731.0,1011.0,-2459.0,1.0
9596.0,3724.0,-1044.0,-10802.0,-6084.0,3805.0,1.0
4968.0,-22392.0,-16284.0,356.0,4812.0,-6789.0,1.0
11940.0,-2980.0,-8980.0,-1867.0,-1999.0,1884.0,1.0
9728.0,-9480.0,-10076.0,-6435.0,1655.0,-344.0,1.0
6780.0,-12700.0,-11456.0,4977.0,-2606.0,1212.0,0.0
8516.0,-8788.0,-10476.0,-4516.0,-2777.0,1985.0,0.0
7952.0,-7636.0,-15780.0,-2433.0,1617.0,1581.0,0.0
8848.0,-15216.0,-7884.0,-5340.0,4909.0,-5626.0,0.0
7348.0,-2924.0,-12452.0,3339.0,-1905.0,-562.0,0.0
9860.0,-10692.0,-14040.0,-600.0,5741.0,-1385.0,0.0
9432.0,-8888.0,-9972.0,-897.0,3174.0,-2326.0,0.0
8464.0,-7652.0,-8488.0,-900.0,134.0,357.0,0.0
12504.0,-9544.0,-14872.0,932.0,5182.0,-326.0,0.0
9536.0,-10908.0,-10436.0,-2081.0,2353.0,-309.0,0.0
9316.0,-10512.0,-7684.0,-123.0,-5841.0,1552.0,0.0
9508.0,-9180.0,-21840.0,-4446.0,7620.0,-5221.0,0.0
11484.0,-12436.0,-4968.0,-804.0,3647.0,46.0,0.0
9048.0,-8616.0,-7944.0,-4812.0,-324.0,-3822.0,0.0
11444.0,-4168.0,-15108.0,3566.0,-6994.0,5390.0,0.0
11688.0,-18568.0,-11716.0,2200.0,3437.0,1572.0,0.0
9368.0,-5072.0,-7116.0,-1506.0,-302.0,-1246.0,0.0
8176.0,-9896.0,-13080.0,1325.0,-4061.0,2623.0,0.0
10728.0,-10068.0,-15768.0,4426.0,5936.0,-3129.0,0.0
11852.0,-8860.0,-10688.0,2893.0,7282.0,-3360.0,0.0
10148.0,-7120.0,-7696.0,-432.0,6492.0,-1658.0,0.0
10740.0,-8564.0,-7216.0,-2837.0,-231.0,647.0,0.0
11948.0,-7856.0,-8868.0,-2035.0,-1701.0,2253.0,0.0
12004.0,-9548.0,-9960.0,-3205.0,453.0,716.0,0.0
11408.0,-8080.0,-9724.0,-3571.0,-352.0,1676.0,0.0
10832.0,-10532.0,-10712.0,-807.0,-1333.0,2690.0,0.0
11652.0,-11020.0,-10660.0,-549.0,843.0,-248.0,0.0
11276.0,-8424.0,-10712.0,-467.0,338.0,-487.0,0.0
11032.0,-8060.0,-10380.0,-1801.0,1833.0,360.0,0.0
11368.0,-8896.0,-10136.0,-881.0,338.0,1019.0,0.0
11076.0,-9744.0,-10300.0,-1601.0,97.0,870.0,0.0
11088.0,-9268.0,-9772.0,-1374.0,-142.0,-211.0,0.0
